sub practiceblocks1 practiceblocks2 block part include trial withinblocktrial resp cor rt rtcj conf t2duration coh_single vc 
1 0 0 1 1 0 1 1 -1 -1 -1 -1 -1 0 0.2 0
1 0 0 1 1 0 2 2 -1 -1 -1 -1 -1 0 0.4 0
1 0 0 1 1 0 3 3 1 1 0.98325 -99 2 0 0.2 0
1 0 0 1 1 0 4 4 2 1 2.0998 -99 2 0 0.2 0
1 0 0 1 1 0 5 5 1 0 0.89949 -99 2 0 0.4 0
1 0 0 1 1 0 6 6 2 1 1.2165 -99 2 0 0.2 0
1 0 0 1 1 0 7 7 2 1 1.2165 -99 2 0 0.2 0
1 0 0 1 1 0 8 8 2 1 0.93318 -99 2 0 0.2 0
1 0 0 1 1 0 9 9 1 0 0.96652 -99 2 0 0.4 0
1 0 0 1 1 0 10 10 1 1 1.6165 -99 2 0 0.2 0
1 0 0 1 1 0 11 11 1 1 0.91655 -99 2 0 0.4 0
1 0 0 1 1 0 12 12 2 0 1.0332 -99 2 0 0.2 0
1 0 0 1 1 0 13 13 2 1 1.1832 -99 2 0 0.2 0
1 0 0 1 1 0 14 14 1 1 0.78325 -99 2 0 0.4 0
1 0 0 1 1 0 15 15 1 1 0.68321 -99 2 0 0.4 0
1 0 0 1 1 0 16 16 2 1 0.74982 -99 2 0 0.2 0
1 0 0 1 1 0 17 17 1 1 0.53324 -99 2 0 0.2 0
1 0 0 1 1 0 18 18 1 0 0.78325 -99 2 0 0.4 0
1 0 0 1 1 0 19 19 1 0 0.86648 -99 2 0 0.4 0
1 0 0 1 1 0 20 20 1 1 0.68318 -99 2 0 0.4 0
1 0 0 1 1 0 21 21 2 0 0.98316 -99 2 0 0.4 0
1 0 0 1 1 0 22 22 2 1 0.94981 -99 2 0 0.2 0
1 0 0 1 1 0 23 23 1 1 0.66654 -99 2 0 0.4 0
1 0 0 1 1 0 24 24 1 1 1.8665 -99 2 0 0.2 0
1 0 0 1 1 0 25 25 2 1 2.4164 -99 2 0 0.4 0
1 0 0 1 1 0 26 26 2 0 2.7331 -99 2 0 0.2 0
1 0 0 1 1 0 27 27 1 1 1.6331 -99 2 0 0.4 0
1 0 0 1 1 0 28 28 2 1 1.7832 -99 2 0 0.2 0
1 0 0 1 1 0 29 29 1 1 1.0332 -99 2 0 0.4 0
1 0 0 1 1 0 30 30 1 1 1.7665 -99 2 0 0.2 0
1 0 0 1 1 0 31 31 2 1 1.3998 -99 2 0 0.2 0
1 0 0 1 1 0 32 32 2 1 2.8831 -99 2 0 0.4 0
1 0 0 1 1 0 33 33 1 1 1.2998 -99 2 0 0.2 0
1 0 0 1 1 0 34 34 2 1 1.0332 -99 2 0 0.2 0
1 0 0 1 1 0 35 35 2 1 1.2665 -99 2 0 0.4 0
1 0 0 1 1 0 36 36 2 1 1.4332 -99 2 0 0.2 0
1 0 0 1 1 0 37 37 1 1 0.61652 -99 2 0 0.4 0
1 0 0 1 1 0 38 38 2 1 1.3666 -99 2 0 0.2 0
1 0 0 1 1 0 39 39 1 0 1.1332 -99 2 0 0.4 0
1 0 0 1 1 0 40 40 1 1 0.6832 -99 2 0 0.4 0
1 0 0 1 1 0 41 41 2 1 0.69984 -99 2 0 0.4 0
1 0 0 1 1 0 42 42 1 1 0.71655 -99 2 0 0.2 0
1 0 0 1 1 0 43 43 1 1 0.91651 -99 2 0 0.2 0
1 0 0 1 1 0 44 44 2 1 0.83312 -99 2 0 0.2 0
1 0 0 1 1 0 45 45 1 1 0.69986 -99 2 0 0.2 0
1 0 0 1 1 0 46 46 2 0 1.6165 -99 2 0 0.4 0
1 0 0 1 1 0 47 47 1 1 0.99987 -99 2 0 0.2 0
1 0 0 1 1 0 48 48 2 1 0.98317 -99 2 0 0.4 0
1 0 0 1 1 0 49 49 2 1 1.3499 -99 2 0 0.4 0
1 0 0 1 1 0 50 50 1 1 0.74987 -99 2 0 0.4 0
1 0 0 1 1 0 51 51 1 1 0.9832 -99 2 0 0.4 0
1 0 0 1 1 0 52 52 1 1 0.76653 -99 2 0 0.4 0
1 0 0 1 1 0 53 53 2 1 0.74986 -99 2 0 0.4 0
1 0 0 1 1 0 54 54 2 1 0.73319 -99 2 0 0.4 0
1 0 0 1 1 0 55 55 1 1 0.61656 -99 2 0 0.2 0
1 0 0 1 1 0 56 56 1 1 0.58324 -99 2 0 0.2 0
1 0 0 1 1 0 57 57 2 1 0.74988 -99 2 0 0.2 0
1 0 0 1 1 0 58 58 1 1 0.66653 -99 2 0 0.2 0
1 0 0 1 1 0 59 59 2 1 0.63319 -99 2 0 0.4 0
1 0 0 1 1 0 60 60 2 1 0.68321 -99 2 0 0.4 0
1 0 0 2 2 0 61 1 1 1 1.1498 -99 2 0 0.05 0
1 0 0 2 2 0 62 2 2 1 0.96651 -99 2 0 0 1
1 0 0 2 2 0 63 3 2 1 1.0499 -99 2 0 0.2 1
1 0 0 2 2 0 64 4 2 0 2.8331 -99 2 0 0 0
1 0 0 2 2 0 65 5 1 1 1.2165 -99 2 0 0.1 0
1 0 0 2 2 0 66 6 1 1 1.1165 -99 2 0 0.05 0
1 0 0 2 2 0 67 7 2 1 0.68358 -99 2 0 0.4 0
1 0 0 2 2 0 68 8 1 1 1.8165 -99 2 0 0.05 1
1 0 0 2 2 0 69 9 2 1 1.4165 -99 2 0 0.1 0
1 0 0 2 2 0 70 10 2 1 0.73319 -99 2 0 0.2 0
1 0 0 2 2 0 71 11 1 0 0.63319 -99 2 0 0 0
1 0 0 2 2 0 72 12 2 1 2.0498 -99 2 0 0.1 0
1 0 0 2 2 0 73 13 2 0 1.5332 -99 2 0 0.2 1
1 0 0 2 2 0 74 14 1 1 2.4164 -99 2 0 0.1 1
1 0 0 2 2 0 75 15 1 0 1.1336 -99 2 0 0 1
1 0 0 2 2 0 76 16 2 1 1.2332 -99 2 0 0.05 0
1 0 0 2 2 0 77 17 1 1 0.81488 -99 2 0 0.4 0
1 0 0 2 2 0 78 18 2 1 0.81653 -99 2 0 0.4 1
1 0 0 2 2 0 79 19 1 1 0.63322 -99 2 0 0.4 0
1 0 0 2 2 0 80 20 2 0 1.8832 -99 2 0 0 0
1 0 0 2 2 0 81 21 2 1 1.7998 -99 2 0 0.05 0
1 0 0 2 2 0 82 22 1 1 0.63316 -99 2 0 0.2 0
1 0 0 2 2 0 83 23 1 1 0.63321 -99 2 0 0.4 1
1 0 0 2 2 0 84 24 2 1 0.5999 -99 2 0 0.4 0
1 0 0 2 2 0 85 25 1 1 0.98318 -99 2 0 0.1 1
1 0 0 2 2 0 86 26 1 1 0.61653 -99 2 0 0.2 1
1 0 0 2 2 0 87 27 2 0 1.8998 -99 2 0 0.05 1
1 0 0 2 2 0 88 28 1 1 0.61656 -99 2 0 0.2 0
1 0 0 2 2 0 89 29 2 0 0.63323 -99 2 0 0 1
1 0 0 2 2 0 90 30 2 1 1.1332 -99 2 0 0.2 0
1 0 0 2 2 0 91 31 1 1 0.66652 -99 2 0 0.2 1
1 0 0 2 2 0 92 32 1 0 0.64987 -99 2 0 0 0
1 0 0 2 2 0 93 33 1 1 0.66652 -99 2 0 0.2 0
1 0 0 2 2 0 94 34 2 0 1.0165 -99 2 0 0 1
1 0 0 2 2 0 95 35 2 1 1.3665 -99 2 0 0.1 1
1 0 0 2 2 0 96 36 1 1 0.76653 -99 2 0 0.4 0
1 0 0 2 2 0 97 37 2 1 1.2832 -99 2 0 0.2 0
1 0 0 2 2 0 98 38 2 1 0.90016 -99 2 0 0.4 0
1 0 0 2 2 0 99 39 1 1 1.8832 -99 2 0 0.05 0
1 0 0 2 2 0 100 40 1 1 0.65029 -99 2 0 0.4 1
1 0 0 2 2 0 101 41 1 1 0.91659 -99 2 0 0.1 0
1 0 0 2 2 0 102 42 2 1 1.1498 -99 2 0 0.1 0
1 0 0 2 2 0 103 43 1 1 1.0832 -99 2 0 0.1 1
1 0 0 2 2 0 104 44 2 1 0.59982 -99 2 0 0.4 1
1 0 0 2 2 0 105 45 2 1 0.5832 -99 2 0 0.1 1
1 0 0 2 2 0 106 46 2 1 1.2332 -99 2 0 0.05 1
1 0 0 2 2 0 107 47 1 1 0.59985 -99 2 0 0 1
1 0 0 2 2 0 108 48 2 1 1.3498 -99 2 0 0.05 0
1 0 0 2 2 0 109 49 1 1 0.59985 -99 2 0 0.4 1
1 0 0 2 2 0 110 50 2 1 0.49985 -99 2 0 0.4 1
1 0 0 2 2 0 111 51 2 0 1.2832 -99 2 0 0 0
1 0 0 2 2 0 112 52 2 0 1.1665 -99 2 0 0.1 0
1 0 0 2 2 0 113 53 1 0 0.71651 -99 2 0 0 0
1 0 0 2 2 0 114 54 2 1 0.76651 -99 2 0 0.1 1
1 0 0 2 2 0 115 55 1 0 1.2999 -99 2 0 0 1
1 0 0 2 2 0 116 56 2 1 0.69989 -99 2 0 0.2 1
1 0 0 2 2 0 117 57 2 1 1.5832 -99 2 0 0.05 1
1 0 0 2 2 0 118 58 2 1 0.8832 -99 2 0 0.05 1
1 0 0 2 2 0 119 59 1 1 1.5831 -99 2 0 0.05 1
1 0 0 2 2 0 120 60 2 1 0.79985 -99 2 0 0.2 1
1 0 0 3 3 1 121 1 1 0 2.7998 -99 3 0 0.1 0
1 0 0 3 3 1 122 2 2 1 2.5831 -99 3 0 0.1 1
1 0 0 3 3 1 123 3 2 0 2.6831 -99 2 0 0 0
1 0 0 3 3 1 124 4 2 1 1.3165 -99 2 0 0.05 1
1 0 0 3 3 1 125 5 1 1 1.2498 -99 3 0 0.4 1
1 0 0 3 3 1 126 6 2 1 2.3332 -99 2 0 0.05 0
1 0 0 3 3 1 127 7 1 0 1.4165 -99 2 0 0 1
1 0 0 3 3 1 128 8 2 1 1.6832 -99 3 0 0.2 1
1 0 0 3 3 1 129 9 1 0 2.3831 -99 3 0 0 1
1 0 0 3 3 1 130 10 2 1 2.7498 -99 2 0 0.1 0
1 0 0 3 3 1 131 11 2 0 2.9498 -99 1 0 0.05 0
1 0 0 3 3 1 132 12 2 1 1.3165 -99 3 0 0.4 1
1 0 0 3 3 1 133 13 2 1 1.2165 -99 3 0 0.2 0
1 0 0 3 3 0 134 14 -1 -1 -1 -1 -1 0 0.2 1
1 0 0 3 3 1 135 15 2 0 1.3498 -99 3 0 0.1 1
1 0 0 3 3 1 136 16 1 1 1.0331 -99 3 0 0.4 0
1 0 0 3 3 1 137 17 2 1 0.7665 -99 3 0 0.4 1
1 0 0 3 3 1 138 18 1 1 1.2498 -99 2 0 0.05 0
1 0 0 3 3 1 139 19 2 1 1.0498 -99 2 0 0.2 1
1 0 0 3 3 1 140 20 1 0 1.0999 -99 2 0 0 0
1 0 0 3 3 1 141 21 1 1 0.76646 -99 2 0 0.1 0
1 0 0 3 3 1 142 22 1 1 1.0832 -99 2 0 0.1 1
1 0 0 3 3 1 143 23 1 1 1.9998 -99 2 0 0.2 1
1 0 0 3 3 1 144 24 1 0 1.5165 -99 1 0 0.05 1
1 0 0 3 3 1 145 25 2 1 1.3665 -99 2 0 0.1 1
1 0 0 3 3 1 146 26 1 1 1.0332 -99 2 0 0.4 0
1 0 0 3 3 1 147 27 1 1 1.5665 -99 2 0 0.1 0
1 0 0 3 3 1 148 28 1 1 2.1165 -99 2 0 0.2 0
1 0 0 3 3 1 149 29 1 1 0.86653 -99 2 0 0.2 0
1 0 0 3 3 1 150 30 1 1 1.2499 -99 3 0 0.2 0
1 0 0 3 3 1 151 31 2 0 1.4165 -99 2 0 0 1
1 0 0 3 3 1 152 32 2 0 1.9999 -99 1 0 0.05 1
1 0 0 3 3 1 153 33 2 1 2.0998 -99 1 0 0.05 0
1 0 0 3 3 1 154 34 1 0 1.1332 -99 2 0 0.1 0
1 0 0 3 3 1 155 35 2 0 1.7999 -99 2 0 0 1
1 0 0 3 3 1 156 36 1 1 1.4332 -99 3 0 0.4 0
1 0 0 3 3 1 157 37 1 1 0.98317 -99 2 0 0.2 1
1 0 0 3 3 1 158 38 1 1 1.6165 -99 3 0 0.4 1
1 0 0 3 3 1 159 39 2 1 1.5832 -99 3 0 0.1 1
1 0 0 3 3 1 160 40 1 1 1.9831 -99 3 0 0.1 0
1 0 0 3 3 1 161 41 2 0 2.0832 -99 2 0 0 1
1 0 0 3 3 1 162 42 2 0 1.6665 -99 2 0 0 0
1 0 0 3 3 1 163 43 1 0 1.0998 -99 2 0 0 0
1 0 0 3 3 1 164 44 2 1 1.4999 -99 3 0 0.2 0
1 0 0 3 3 1 165 45 2 1 2.1832 -99 2 0 0.05 0
1 0 0 3 3 1 166 46 2 1 0.86649 -99 3 0 0.4 0
1 0 0 3 3 1 167 47 2 1 1.8165 -99 3 0 0.05 1
1 0 0 3 3 1 168 48 1 1 2.0665 -99 3 0 0.1 1
1 0 0 3 3 1 169 49 2 1 0.99987 -99 3 0 0.2 0
1 0 0 3 3 1 170 50 2 0 1.0998 -99 2 0 0.05 1
1 0 0 3 3 1 171 51 2 0 2.0831 -99 1 0 0.05 1
1 0 0 3 3 1 172 52 1 1 1.0499 -99 1 0 0 0
1 0 0 3 3 1 173 53 1 1 1.1499 -99 3 0 0.4 1
1 0 0 3 3 1 174 54 2 1 0.94988 -99 3 0 0.2 1
1 0 0 3 3 1 175 55 2 1 0.84985 -99 3 0 0.4 0
1 0 0 3 3 1 176 56 1 1 0.88319 -99 3 0 0.05 0
1 0 0 3 3 1 177 57 2 1 0.66652 -99 3 0 0.4 0
1 0 0 3 3 1 178 58 1 0 0.64984 -99 3 0 0 0
1 0 0 3 3 1 179 59 2 1 0.78316 -99 3 0 0 1
1 0 0 3 3 1 180 60 2 1 1.7831 -99 3 0 0.4 1
1 0 0 4 3 1 181 1 1 1 0.76651 -99 3 0 0.4 1
1 0 0 4 3 1 182 2 2 1 0.83316 -99 3 0 0.2 0
1 0 0 4 3 1 183 3 1 1 1.3998 -99 3 0 0 1
1 0 0 4 3 1 184 4 1 1 2.0665 -99 1 0 0 0
1 0 0 4 3 1 185 5 2 1 1.7828 -99 1 0 0.1 1
1 0 0 4 3 1 186 6 2 1 1.0832 -99 2 0 0 1
1 0 0 4 3 1 187 7 2 1 1.6165 -99 2 0 0.1 0
1 0 0 4 3 1 188 8 1 0 0.94986 -99 2 0 0 0
1 0 0 4 3 1 189 9 1 1 0.71654 -99 2 0 0.2 0
1 0 0 4 3 1 190 10 2 1 1.1832 -99 2 0 0.05 1
1 0 0 4 3 1 191 11 1 0 0.86653 -99 2 0 0.05 0
1 0 0 4 3 1 192 12 1 1 0.86651 -99 2 0 0.2 0
1 0 0 4 3 1 193 13 1 1 1.2332 -99 2 0 0.2 1
1 0 0 4 3 1 194 14 2 1 1.3665 -99 2 0 0.05 1
1 0 0 4 3 1 195 15 1 0 1.0832 -99 2 0 0.05 0
1 0 0 4 3 1 196 16 1 1 0.96651 -99 2 0 0.05 0
1 0 0 4 3 1 197 17 1 1 1.8832 -99 3 0 0.1 1
1 0 0 4 3 1 198 18 2 1 1.0832 -99 3 0 0 1
1 0 0 4 3 1 199 19 2 1 1.5495 -99 3 0 0.2 0
1 0 0 4 3 1 200 20 1 1 1.1498 -99 3 0 0.2 1
1 0 0 4 3 1 201 21 1 1 1.6669 -99 3 0 0 0
1 0 0 4 3 1 202 22 1 1 0.6836 -99 3 0 0.1 0
1 0 0 4 3 1 203 23 2 0 1.0165 -99 3 0 0.05 1
1 0 0 4 3 1 204 24 2 1 1.1999 -99 3 0 0.4 1
1 0 0 4 3 1 205 25 1 1 0.94987 -99 3 0 0.2 1
1 0 0 4 3 1 206 26 2 1 0.69983 -99 3 0 0.4 1
1 0 0 4 3 1 207 27 2 1 1.1831 -99 3 0 0.1 1
1 0 0 4 3 1 208 28 2 1 0.69982 -99 3 0 0.4 0
1 0 0 4 3 1 209 29 2 1 0.66649 -99 3 0 0.4 0
1 0 0 4 3 1 210 30 2 1 0.8665 -99 3 0 0.2 1
1 0 0 4 3 1 211 31 2 1 0.68322 -99 3 0 0.2 1
1 0 0 4 3 1 212 32 1 1 0.61651 -99 3 0 0.2 0
1 0 0 4 3 1 213 33 2 1 1.6166 -99 3 0 0 0
1 0 0 4 3 1 214 34 1 1 1.4331 -99 3 0 0.1 0
1 0 0 4 3 1 215 35 2 0 1.2498 -99 3 0 0.05 0
1 0 0 4 3 1 216 36 2 1 0.78314 -99 3 0 0.05 1
1 0 0 4 3 1 217 37 1 1 0.91657 -99 3 0 0.4 1
1 0 0 4 3 1 218 38 2 1 0.73323 -99 3 0 0.4 1
1 0 0 4 3 1 219 39 1 0 1.4665 -99 2 0 0 1
1 0 0 4 3 1 220 40 1 1 1.2165 -99 2 0 0.1 1
1 0 0 4 3 1 221 41 2 1 1.2336 -99 2 0 0.2 0
1 0 0 4 3 1 222 42 2 1 0.7669 -99 2 0 0.1 1
1 0 0 4 3 1 223 43 1 1 0.63318 -99 2 0 0.4 0
1 0 0 4 3 1 224 44 2 0 2.5665 -99 2 0 0.05 1
1 0 0 4 3 1 225 45 1 1 1.3336 -99 2 0 0.1 1
1 0 0 4 3 1 226 46 1 1 1.1003 -99 3 0 0 0
1 0 0 4 3 1 227 47 1 0 1.2165 -99 1 0 0 0
1 0 0 4 3 1 228 48 1 1 1.1332 -99 3 0 0.4 1
1 0 0 4 3 1 229 49 2 0 1.6665 -99 1 0 0 1
1 0 0 4 3 1 230 50 2 1 0.96696 -99 2 0 0.4 0
1 0 0 4 3 1 231 51 2 0 2.5665 -99 2 0 0 1
1 0 0 4 3 1 232 52 1 1 0.98317 -99 3 0 0.4 0
1 0 0 4 3 1 233 53 2 0 1.2665 -99 3 0 0.05 1
1 0 0 4 3 1 234 54 2 1 1.4166 -99 1 0 0.1 0
1 0 0 4 3 1 235 55 2 1 1.5669 -99 1 0 0.1 0
1 0 0 4 3 1 236 56 1 1 0.8836 -99 3 0 0.4 0
1 0 0 4 3 1 237 57 1 0 1.3332 -99 1 0 0.05 0
1 0 0 4 3 1 238 58 1 1 1.8002 -99 2 0 0.05 0
1 0 0 4 3 1 239 59 1 1 1.4832 -99 1 0 0.1 0
1 0 0 4 3 1 240 60 2 1 1.5669 -99 3 0 0.2 1
1 0 0 5 3 1 241 1 1 1 1.5498 -99 3 0 0 0
1 0 0 5 3 1 242 2 2 1 1.2165 -99 3 0 0.4 0
1 0 0 5 3 1 243 3 1 1 1.9831 -99 1 0 0.05 0
1 0 0 5 3 1 244 4 2 1 0.98361 -99 1 0 0.05 0
1 0 0 5 3 1 245 5 2 1 1.9332 -99 3 0 0.2 0
1 0 0 5 3 1 246 6 2 1 2.0836 -99 3 0 0.1 1
1 0 0 5 3 1 247 7 2 1 2.1998 -99 2 0 0.05 1
1 0 0 5 3 1 248 8 2 1 1.8165 -99 1 0 0.1 1
1 0 0 5 3 1 249 9 1 1 0.94983 -99 3 0 0.4 0
1 0 0 5 3 1 250 10 1 1 0.7499 -99 3 0 0.1 1
1 0 0 5 3 1 251 11 1 1 0.91655 -99 3 0 0.4 1
1 0 0 5 3 1 252 12 1 1 1.0332 -99 3 0 0.4 0
1 0 0 5 3 1 253 13 2 1 1.7665 -99 2 0 0 1
1 0 0 5 3 1 254 14 2 0 1.4498 -99 2 0 0 1
1 0 0 5 3 1 255 15 1 1 0.96648 -99 3 0 0.2 1
1 0 0 5 3 1 256 16 2 1 1.7665 -99 2 0 0 0
1 0 0 5 3 1 257 17 1 1 0.93319 -99 2 0 0.2 1
1 0 0 5 3 1 258 18 1 1 0.64985 -99 3 0 0.2 0
1 0 0 5 3 1 259 19 1 1 0.66658 -99 2 0 0.2 0
1 0 0 5 3 1 260 20 2 1 1.4998 -99 2 0 0.1 0
1 0 0 5 3 1 261 21 2 1 1.0332 -99 3 0 0.2 0
1 0 0 5 3 1 262 22 2 1 0.76652 -99 3 0 0.4 1
1 0 0 5 3 1 263 23 1 1 1.6498 -99 2 0 0 0
1 0 0 5 3 1 264 24 2 1 1.0999 -99 2 0 0.1 0
1 0 0 5 3 1 265 25 2 1 0.86653 -99 3 0 0.4 0
1 0 0 5 3 1 266 26 1 1 0.86649 -99 3 0 0.1 1
1 0 0 5 3 1 267 27 2 0 1.8165 -99 3 0 0 0
1 0 0 5 3 1 268 28 2 1 1.5998 -99 3 0 0.05 0
1 0 0 5 3 1 269 29 1 1 0.93319 -99 3 0 0.4 1
1 0 0 5 3 1 270 30 1 1 0.86651 -99 3 0 0.2 0
1 0 0 5 3 1 271 31 2 1 0.91651 -99 3 0 0.4 1
1 0 0 5 3 1 272 32 1 1 1.1332 -99 3 0 0.1 1
1 0 0 5 3 1 273 33 1 1 1.2165 -99 3 0 0.4 1
1 0 0 5 3 1 274 34 2 1 1.1665 -99 2 0 0 0
1 0 0 5 3 1 275 35 1 1 0.68317 -99 3 0 0.4 0
1 0 0 5 3 1 276 36 2 1 1.5497 -99 2 0 0 1
1 0 0 5 3 1 277 37 1 1 0.88319 -99 2 0 0.05 1
1 0 0 5 3 1 278 38 2 1 0.98314 -99 3 0 0.4 0
1 0 0 5 3 1 279 39 1 1 0.63321 -99 3 0 0.2 1
1 0 0 5 3 1 280 40 2 0 1.6498 -99 2 0 0.05 0
1 0 0 5 3 1 281 41 2 0 0.98323 -99 2 0 0 1
1 0 0 5 3 1 282 42 1 1 0.93318 -99 2 0 0.1 0
1 0 0 5 3 1 283 43 2 1 0.76655 -99 2 0 0.2 1
1 0 0 5 3 1 284 44 2 1 0.84958 -99 3 0 0.2 1
1 0 0 5 3 1 285 45 1 1 0.91647 -99 2 0 0.1 0
1 0 0 5 3 1 286 46 2 1 0.89988 -99 3 0 0.4 1
1 0 0 5 3 1 287 47 2 1 1.3331 -99 2 0 0.1 0
1 0 0 5 3 1 288 48 2 0 0.98322 -99 2 0 0.05 0
1 0 0 5 3 1 289 49 2 0 0.96655 -99 2 0 0.1 0
1 0 0 5 3 1 290 50 2 1 1.7332 -99 3 0 0 1
1 0 0 5 3 1 291 51 2 0 1.1832 -99 2 0 0.05 1
1 0 0 5 3 1 292 52 2 1 2.0998 -99 3 0 0.1 1
1 0 0 5 3 1 293 53 1 1 1.0162 -99 2 0 0.05 1
1 0 0 5 3 1 294 54 2 0 1.3998 -99 2 0 0 1
1 0 0 5 3 1 295 55 2 1 1.2665 -99 2 0 0.05 1
1 0 0 5 3 1 296 56 2 1 1.0665 -99 3 0 0.2 1
1 0 0 5 3 1 297 57 2 1 0.88312 -99 3 0 0.05 1
1 0 0 5 3 1 298 58 2 1 0.91654 -99 3 0 0.2 0
1 0 0 5 3 1 299 59 2 1 2.0998 -99 3 0 0 0
1 0 0 5 3 1 300 60 2 1 0.88321 -99 3 0 0.05 0
1 0 0 6 3 1 301 1 2 0 1.5768 -99 2 0 0 0
1 0 0 6 3 1 302 2 1 1 1.4003 -99 3 0 0.2 0
1 0 0 6 3 1 303 3 1 1 2.2165 -99 2 0 0 0
1 0 0 6 3 1 304 4 2 1 0.98319 -99 3 0 0.1 1
1 0 0 6 3 1 305 5 1 0 1.4998 -99 3 0 0 1
1 0 0 6 3 1 306 6 2 1 0.75076 -99 3 0 0.4 0
1 0 0 6 3 1 307 7 1 1 1.2999 -99 3 0 0.1 1
1 0 0 6 3 1 308 8 2 1 1.1832 -99 3 0 0.05 1
1 0 0 6 3 1 309 9 1 0 1.1499 -99 3 0 0 1
1 0 0 6 3 1 310 10 2 0 0.79986 -99 3 0 0 1
1 0 0 6 3 1 311 11 2 1 1.8498 -99 2 0 0.1 0
1 0 0 6 3 1 312 12 1 0 1.7998 -99 2 0 0.1 0
1 0 0 6 3 1 313 13 1 1 1.4499 -99 2 0 0.1 0
1 0 0 6 3 1 314 14 2 1 1.0499 -99 3 0 0.1 1
1 0 0 6 3 1 315 15 1 1 1.3169 -99 3 0 0.1 1
1 0 0 6 3 1 316 16 1 1 0.83249 -99 3 0 0.4 1
1 0 0 6 3 1 317 17 2 0 2.6665 -99 1 0 0 1
1 0 0 6 3 1 318 18 2 1 0.99986 -99 3 0 0.4 1
1 0 0 6 3 1 319 19 2 1 1.7165 -99 2 0 0.2 0
1 0 0 6 3 1 320 20 2 1 1.1499 -99 2 0 0.2 0
1 0 0 6 3 1 321 21 2 1 1.1832 -99 3 0 0.4 1
1 0 0 6 3 1 322 22 2 1 0.79993 -99 3 0 0.2 1
1 0 0 6 3 1 323 23 2 1 2.4998 -99 2 0 0 0
1 0 0 6 3 1 324 24 1 1 1.2165 -99 2 0 0.1 0
1 0 0 6 3 1 325 25 1 1 1.2332 -99 3 0 0.2 1
1 0 0 6 3 1 326 26 1 1 2.1998 -99 1 0 0 0
1 0 0 6 3 1 327 27 2 1 0.94992 -99 3 0 0.4 0
1 0 0 6 3 1 328 28 1 1 1.3332 -99 3 0 0.1 0
1 0 0 6 3 1 329 29 1 1 0.7666 -99 3 0 0.4 0
1 0 0 6 3 1 330 30 1 1 2.0498 -99 2 0 0.2 0
1 0 0 6 3 1 331 31 1 1 1.3165 -99 1 0 0.05 1
1 0 0 6 3 1 332 32 1 1 1.2832 -99 3 0 0.2 0
1 0 0 6 3 1 333 33 1 0 1.7832 -99 1 0 0 0
1 0 0 6 3 1 334 34 2 1 1.2998 -99 3 0 0.2 1
1 0 0 6 3 1 335 35 1 1 1.0979 -99 3 0 0.1 1
1 0 0 6 3 1 336 36 2 0 1.7498 -99 1 0 0.05 0
1 0 0 6 3 1 337 37 1 1 0.94988 -99 3 0 0.2 1
1 0 0 6 3 1 338 38 1 1 0.71652 -99 3 0 0.4 0
1 0 0 6 3 1 339 39 2 0 1.2332 -99 3 0 0.05 0
1 0 0 6 3 1 340 40 2 0 1.7998 -99 3 0 0 1
1 0 0 6 3 1 341 41 1 1 0.83319 -99 3 0 0.05 1
1 0 0 6 3 1 342 42 2 1 1.2998 -99 3 0 0 0
1 0 0 6 3 1 343 43 2 1 0.99987 -99 3 0 0.4 0
1 0 0 6 3 1 344 44 1 1 0.7503 -99 3 0 0.4 1
1 0 0 6 3 1 345 45 1 1 1.1666 -99 3 0 0.2 1
1 0 0 6 3 1 346 46 2 1 1.2499 -99 3 0 0.1 0
1 0 0 6 3 1 347 47 2 1 1.3165 -99 3 0 0 1
1 0 0 6 3 1 348 48 2 1 0.98326 -99 2 0 0.2 1
1 0 0 6 3 1 349 49 2 1 0.71655 -99 2 0 0.4 1
1 0 0 6 3 1 350 50 2 0 1.6498 -99 1 0 0.05 0
1 0 0 6 3 1 351 51 2 1 1.3332 -99 2 0 0.1 1
1 0 0 6 3 1 352 52 1 1 0.98319 -99 3 0 0.4 1
1 0 0 6 3 1 353 53 2 1 1.1499 -99 2 0 0.05 0
1 0 0 6 3 1 354 54 2 1 0.83322 -99 3 0 0.2 0
1 0 0 6 3 1 355 55 1 1 1.2499 -99 3 0 0.05 1
1 0 0 6 3 1 356 56 2 1 1.2499 -99 2 0 0.05 0
1 0 0 6 3 1 357 57 2 1 1.3999 -99 2 0 0.05 0
1 0 0 6 3 1 358 58 1 1 0.88324 -99 3 0 0.4 0
1 0 0 6 3 1 359 59 2 1 0.91654 -99 3 0 0.05 1
1 0 0 6 3 1 360 60 1 0 1.6165 -99 2 0 0.05 1
1 0 0 7 2 0 361 1 1 1 1.6332 -99 2 1 0.4 0
1 0 0 7 2 0 362 2 2 1 1.4669 -99 1 1 0.4 0
1 0 0 7 2 0 363 3 2 1 1.2669 -99 1 1 0.4 0
1 0 0 7 2 0 364 4 2 1 1.1332 -99 1 1 0.4 0
1 0 0 7 2 0 365 5 1 1 1.1165 -99 2 1 0.4 0
1 0 0 7 2 0 366 6 1 1 0.93363 -99 2 1 0.4 0
1 0 0 7 2 0 367 7 1 1 1.1499 -99 2 1 0.4 0
1 0 0 7 2 0 368 8 2 1 1.2332 -99 1 1 0.4 0
1 0 0 8 3 1 369 1 2 1 1.2332 3.1308 5 1 0.2 0
1 0 0 8 3 0 370 2 -1 -1 -1 -1 -1 1 0 0
1 0 0 8 3 1 371 3 2 1 0.7332 1.7584 3 1 0.1 0
1 0 0 8 3 1 372 4 2 0 2.6331 2.2265 3 1 0 1
1 0 0 8 3 1 373 5 1 0 2.3832 0.31818 4 1 0 1
1 0 0 8 3 1 374 6 1 1 1.7165 0.92818 4 1 0.05 1
1 0 0 8 3 1 375 7 1 1 2.4998 1.2748 5 1 0.2 0
1 0 0 8 3 1 376 8 2 1 2.2332 0.45826 2 1 0.2 0
1 0 0 8 3 0 377 9 -1 -1 -1 -1 -1 1 0 0
1 0 0 8 3 1 378 10 1 1 1.7165 0.4419 5 1 0.2 0
1 0 0 8 3 1 379 11 2 1 2.6498 0.78619 2 1 0.1 1
1 0 0 8 3 1 380 12 1 1 2.3665 0.78353 5 1 0.2 0
1 0 0 8 3 0 381 13 -1 -1 -1 -1 -1 1 0 1
1 0 0 8 3 1 382 14 1 1 2.0832 0.98759 4 1 0.2 1
1 0 0 8 3 1 383 15 2 0 2.6502 0.42167 3 1 0.05 0
1 0 0 8 3 1 384 16 2 1 1.9832 0.609 6 1 0.4 1
1 0 0 8 3 1 385 17 2 1 2.1999 0.31647 5 1 0.1 1
1 0 0 8 3 1 386 18 2 1 1.7999 0.73123 5 1 0.2 1
1 0 0 8 3 1 387 19 2 1 1.3665 0.64333 6 1 0.4 0
1 0 0 8 3 1 388 20 1 1 1.3832 6.462 5 1 0.4 1
1 0 0 8 3 1 389 21 2 1 2.4999 0.54769 3 1 0.05 0
1 0 0 8 3 1 390 22 2 1 1.4332 1.9363 5 1 0.4 1
1 0 0 8 3 1 391 23 1 1 2.6665 0.59596 5 1 0.1 0
1 0 0 8 3 0 392 24 -1 -1 -1 -1 -1 1 0 1
1 0 0 8 3 1 393 25 2 1 1.4832 0.53 6 1 0.4 0
1 0 0 8 3 1 394 26 1 1 2.1665 0.37814 6 1 0.2 1
1 0 0 8 3 1 395 27 2 1 2.0998 1.2033 6 1 0.4 1
1 0 0 8 3 1 396 28 1 1 1.3499 0.51262 6 1 0.4 0
1 0 0 8 3 1 397 29 2 1 2.0332 0.75036 5 1 0.2 1
1 0 0 8 3 1 398 30 2 1 2.5165 0.60745 3 1 0.1 1
1 0 0 8 3 1 399 31 2 0 2.4832 0.71955 2 1 0.05 1
1 0 0 8 3 1 400 32 2 1 2.8832 1.3227 2 1 0 0
1 0 0 8 3 1 401 33 1 1 2.8999 2.8215 4 1 0.1 1
1 0 0 8 3 1 402 34 1 0 2.6665 0.6937 2 1 0.05 0
1 0 0 8 3 1 403 35 2 1 2.0998 0.6738 5 1 0.05 0
1 0 0 8 3 1 404 36 1 1 1.7665 0.33982 6 1 0.4 1
1 0 0 8 3 1 405 37 1 1 2.3498 1.3158 6 1 0.4 1
1 0 0 8 3 0 406 38 -1 -1 -1 -1 -1 1 0 1
1 0 0 8 3 1 407 39 2 0 1.2165 1.26 2 1 0 0
1 0 0 8 3 0 408 40 -1 -1 -1 -1 -1 1 0.05 1
1 0 0 8 3 1 409 41 2 1 1.0166 0.30899 2 1 0.05 1
1 0 0 8 3 1 410 42 2 1 1.6332 0.53902 5 1 0.2 0
1 0 0 8 3 1 411 43 1 1 1.6998 0.541 5 1 0.1 0
1 0 0 8 3 1 412 44 1 0 2.4998 0.96714 5 1 0.05 1
1 0 0 8 3 1 413 45 1 1 1.6999 0.5525 6 1 0.2 1
1 0 0 8 3 1 414 46 1 1 2.1165 0.12888 5 1 0.1 0
1 0 0 8 3 1 415 47 2 0 2.1665 1.313 3 1 0.05 1
1 0 0 8 3 1 416 48 1 1 1.4166 0.4555 5 1 0.4 0
1 0 0 8 3 1 417 49 1 1 2.8165 1.5366 4 1 0 1
1 0 0 8 3 1 418 50 1 1 1.4498 0.37242 6 1 0.4 0
1 0 0 8 3 1 419 51 2 1 1.5665 0.53881 6 1 0.4 0
1 0 0 8 3 1 420 52 1 1 2.5332 0.52357 3 1 0 0
1 0 0 8 3 1 421 53 1 1 1.8666 0.48738 4 1 0.1 1
1 0 0 8 3 0 422 54 -1 -1 -1 -1 -1 1 0.1 0
1 0 0 8 3 1 423 55 2 0 1.6332 6.5607 2 1 0.1 1
1 0 0 8 3 1 424 56 2 0 1.9498 1.2644 4 1 0.05 0
1 0 0 8 3 1 425 57 2 1 2.1498 1.5322 4 1 0.1 0
1 0 0 8 3 1 426 58 2 1 2.0498 0.00016742 4 1 0 0
1 0 0 8 3 1 427 59 1 1 2.1665 1.0449 5 1 0.05 0
1 0 0 8 3 1 428 60 2 1 1.7332 1.2877 6 1 0.2 1
1 0 0 9 3 1 429 1 2 1 1.2832 0.50692 5 1 0.2 0
1 0 0 9 3 1 430 2 1 1 1.0165 0.36166 5 1 0 0
1 0 0 9 3 1 431 3 2 1 1.1332 0.46581 6 1 0.2 1
1 0 0 9 3 0 432 4 -1 -1 -1 -1 -1 1 0.1 1
1 0 0 9 3 1 433 5 1 1 0.89988 0.54064 6 1 0.4 1
1 0 0 9 3 1 434 6 2 1 1.6332 0.93751 4 1 0.05 0
1 0 0 9 3 1 435 7 1 1 1.6832 0.52407 6 1 0.4 1
1 0 0 9 3 1 436 8 2 1 2.1331 0.66157 2 1 0.05 0
1 0 0 9 3 1 437 9 1 0 1.2999 0.70697 4 1 0 0
1 0 0 9 3 1 438 10 2 0 2.9497 0.97234 5 1 0 0
1 0 0 9 3 1 439 11 2 0 1.9832 0.61784 6 1 0.2 0
1 0 0 9 3 1 440 12 1 0 1.6832 1.5452 5 1 0.4 1
1 0 0 9 3 0 441 13 -1 -1 -1 -1 -1 1 0.05 1
1 0 0 9 3 1 442 14 1 1 0.68325 0.6721 5 1 0.4 1
1 0 0 9 3 1 443 15 2 1 1.9165 0.88419 5 1 0.2 1
1 0 0 9 3 1 444 16 2 1 2.4832 0.4731 5 1 0.1 0
1 0 0 9 3 1 445 17 1 1 2.7165 0.95707 5 1 0 1
1 0 0 9 3 1 446 18 1 1 1.8665 0.92017 5 1 0.2 0
1 0 0 9 3 0 447 19 -1 -1 -1 -1 -1 1 0.1 0
1 0 0 9 3 1 448 20 1 1 2.6165 1.2042 3 1 0.2 1
1 0 0 9 3 1 449 21 2 1 1.3332 1.2025 2 1 0.05 1
1 0 0 9 3 1 450 22 1 1 1.7998 0.58148 4 1 0.1 0
1 0 0 9 3 1 451 23 1 1 1.3832 0.018354 6 1 0.4 0
1 0 0 9 3 1 452 24 1 1 1.8165 0.61173 6 1 0.2 1
1 0 0 9 3 1 453 25 1 0 2.1002 0.17156 5 1 0.05 0
1 0 0 9 3 1 454 26 2 1 1.6503 0.14992 6 1 0.4 0
1 0 0 9 3 1 455 27 1 1 2.1832 0.29056 5 1 0.05 1
1 0 0 9 3 1 456 28 2 1 1.4665 0.55243 6 1 0.05 1
1 0 0 9 3 1 457 29 1 1 1.6998 0.5855 5 1 0.05 0
1 0 0 9 3 1 458 30 2 0 2.2165 0.53281 5 1 0 1
1 0 0 9 3 1 459 31 2 0 1.8999 0.5829 6 1 0.05 0
1 0 0 9 3 1 460 32 1 1 2.4165 1.7143 5 1 0.1 0
1 0 0 9 3 1 461 33 1 1 2.2998 0.59005 5 1 0.1 0
1 0 0 9 3 1 462 34 2 1 1.8165 0.50521 6 1 0.4 0
1 0 0 9 3 1 463 35 2 0 2.0998 0.86084 1 1 0.05 0
1 0 0 9 3 1 464 36 2 1 2.1165 1.2254 2 1 0 1
1 0 0 9 3 1 465 37 2 1 1.5333 0.50291 6 1 0.4 1
1 0 0 9 3 1 466 38 2 1 2.6165 0.51004 5 1 0.1 0
1 0 0 9 3 1 467 39 2 0 2.3165 0.59234 3 1 0.1 1
1 0 0 9 3 1 468 40 1 1 1.6498 0.00017256 4 1 0.2 1
1 0 0 9 3 1 469 41 1 1 1.3169 0.00016742 5 1 0.4 0
1 0 0 9 3 1 470 42 2 1 2.0998 0.20798 5 1 0 1
1 0 0 9 3 1 471 43 2 1 2.1165 0.00016839 5 1 0.05 1
1 0 0 9 3 1 472 44 1 1 1.4836 0.11112 6 1 0.2 0
1 0 0 9 3 1 473 45 2 1 1.3332 0.00016807 6 1 0.2 0
1 0 0 9 3 1 474 46 2 0 2.1169 0.015769 4 1 0 1
1 0 0 9 3 1 475 47 1 1 1.5835 0.00016839 5 1 0.1 1
1 0 0 9 3 1 476 48 2 1 1.8002 1.2145 6 1 0 0
1 0 0 9 3 1 477 49 2 1 1.8832 0.87058 5 1 0.4 0
1 0 0 9 3 1 478 50 2 1 0.9165 0.562 5 1 0.4 1
1 0 0 9 3 1 479 51 2 0 1.6165 6.8389 5 1 0 0
1 0 0 9 3 1 480 52 1 0 1.8165 0.44038 4 1 0 0
1 0 0 9 3 1 481 53 1 0 2.1665 0.49902 3 1 0 1
1 0 0 9 3 0 482 54 -1 -1 -1 -1 -1 1 0.05 1
1 0 0 9 3 1 483 55 2 1 1.9998 0.49092 2 1 0.1 1
1 0 0 9 3 1 484 56 2 1 1.8665 1.0232 6 1 0.2 1
1 0 0 9 3 1 485 57 2 1 1.7332 0.50865 4 1 0.1 1
1 0 0 9 3 1 486 58 1 1 1.8665 0.79393 6 1 0.4 0
1 0 0 9 3 0 487 59 -1 -1 -1 -1 -1 1 0.2 0
1 0 0 9 3 1 488 60 1 1 1.3499 0.77045 4 1 0.1 1
1 0 0 10 3 1 489 1 2 1 1.7999 0.40642 6 1 0.4 1
1 0 0 10 3 1 490 2 2 1 1.8999 0.33327 6 1 0.2 0
1 0 0 10 3 1 491 3 1 0 2.0998 0.68665 5 1 0 0
1 0 0 10 3 1 492 4 2 1 1.7165 1.3219 5 1 0.1 0
1 0 0 10 3 0 493 5 -1 -1 -1 -1 -1 1 0.4 1
1 0 0 10 3 1 494 6 2 1 1.2499 0.00016967 5 1 0 1
1 0 0 10 3 1 495 7 1 1 1.6332 0.036009 5 1 0.2 1
1 0 0 10 3 1 496 8 2 1 1.9832 0.51088 5 1 0.05 1
1 0 0 10 3 1 497 9 2 1 1.3332 0.3042 5 1 0.2 1
1 0 0 10 3 1 498 10 2 0 1.8502 0.30958 5 1 0.1 1
1 0 0 10 3 1 499 11 2 1 1.1665 0.07765 5 1 0.4 0
1 0 0 10 3 1 500 12 2 1 1.7498 0.59245 5 1 0.05 0
1 0 0 10 3 1 501 13 1 1 1.6165 0.33012 5 1 0.2 0
1 0 0 10 3 1 502 14 2 1 1.2832 0.30859 6 1 0.4 1
1 0 0 10 3 1 503 15 1 1 1.9999 0.54767 6 1 0.4 0
1 0 0 10 3 1 504 16 2 1 2.7832 0.35337 4 1 0.05 1
1 0 0 10 3 1 505 17 1 1 2.1498 0.56811 5 1 0.1 1
1 0 0 10 3 1 506 18 2 1 1.5665 0.00016646 5 1 0.1 0
1 0 0 10 3 1 507 19 2 1 0.99988 1.2003 4 1 0.2 1
1 0 0 10 3 1 508 20 2 1 1.2665 0.056455 5 1 0.4 0
1 0 0 10 3 1 509 21 1 1 1.6495 1.2245 5 1 0.4 1
1 0 0 10 3 1 510 22 2 1 1.5498 1.2759 3 1 0.1 0
1 0 0 10 3 1 511 23 2 0 2.0332 0.88289 3 1 0.05 0
1 0 0 10 3 1 512 24 2 1 1.2999 0.57406 6 1 0.4 0
1 0 0 10 3 1 513 25 2 1 2.3165 0.91753 5 1 0 1
1 0 0 10 3 1 514 26 1 1 2.6832 2.4082 4 1 0.05 1
1 0 0 10 3 1 515 27 1 1 1.7832 1.8599 4 1 0.2 0
1 0 0 10 3 1 516 28 2 1 1.6832 0.60123 5 1 0.2 0
1 0 0 10 3 1 517 29 2 0 2.0832 0.45699 4 1 0 0
1 0 0 10 3 1 518 30 2 1 1.5665 1.5392 5 1 0.1 1
1 0 0 10 3 1 519 31 2 1 2.7165 1.3075 3 1 0 0
1 0 0 10 3 1 520 32 2 0 2.2665 0.89557 2 1 0 0
1 0 0 10 3 1 521 33 1 1 1.8165 0.43035 5 1 0.2 1
1 0 0 10 3 1 522 34 1 1 1.9332 0.33916 6 1 0.1 1
1 0 0 10 3 1 523 35 1 1 1.9832 0.38552 4 1 0.1 0
1 0 0 10 3 1 524 36 1 1 1.2332 0.28329 6 1 0.2 1
1 0 0 10 3 1 525 37 2 1 2.5998 2.0826 5 1 0 0
1 0 0 10 3 1 526 38 2 1 2.1998 0.98618 4 1 0.05 0
1 0 0 10 3 1 527 39 2 1 1.4332 0.60421 6 1 0.2 0
1 0 0 10 3 1 528 40 2 1 1.7998 1.0234 5 1 0.05 0
1 0 0 10 3 1 529 41 2 1 1.2498 0.88711 6 1 0.4 1
1 0 0 10 3 1 530 42 1 1 1.5665 0.95989 5 1 0.1 0
1 0 0 10 3 1 531 43 2 1 2.2165 0.732 5 1 0 1
1 0 0 10 3 1 532 44 2 1 1.1332 3.6604 6 1 0.2 1
1 0 0 10 3 1 533 45 1 1 1.2332 1.3155 5 1 0.2 0
1 0 0 10 3 1 534 46 1 1 2.3998 0.73009 5 1 0.4 0
1 0 0 10 3 0 535 47 -1 -1 -1 -1 -1 1 0.1 1
1 0 0 10 3 1 536 48 1 1 1.0333 0.81317 5 1 0.4 0
1 0 0 10 3 1 537 49 1 1 1.2165 0.46324 6 1 0.4 1
1 0 0 10 3 1 538 50 1 1 1.5998 0.52802 5 1 0.1 0
1 0 0 10 3 1 539 51 2 1 1.2499 0.30837 5 1 0.1 1
1 0 0 10 3 1 540 52 2 0 0.91652 0.28618 4 1 0 1
1 0 0 10 3 1 541 53 1 1 1.6665 0.64281 5 1 0 1
1 0 0 10 3 1 542 54 1 1 1.9665 0.053826 5 1 0.05 1
1 0 0 10 3 1 543 55 1 1 1.4333 0.36507 5 1 0.05 0
1 0 0 10 3 1 544 56 1 1 2.5498 0.82706 5 1 0.05 0
1 0 0 10 3 1 545 57 2 1 2.1665 0.23056 5 1 0.05 1
1 0 0 10 3 1 546 58 1 1 2.6498 0.35099 5 1 0.05 1
1 0 0 10 3 1 547 59 2 0 1.4665 0.47302 3 1 0 0
1 0 0 10 3 1 548 60 2 0 2.3998 0.47309 3 1 0 1
1 0 0 11 2 0 549 1 2 1 1.7664 -99 1 2 0.4 0
1 0 0 11 2 0 550 2 -1 -1 -1 -1 -1 2 0.4 0
1 0 0 11 2 0 551 3 1 1 2.7665 -99 3 2 0.4 0
1 0 0 11 2 0 552 4 1 1 0.016603 -99 3 2 0.4 0
1 0 0 11 2 0 553 5 1 1 2.3165 -99 2 2 0.4 0
1 0 0 11 2 0 554 6 -1 -1 -1 -1 -1 2 0.4 0
1 0 0 11 2 0 555 7 1 0 1.5165 -99 3 2 0.4 0
1 0 0 11 2 0 556 8 -1 -1 -1 -1 -1 2 0.4 0
1 0 0 12 3 1 557 1 2 0 1.4332 0.00019244 4 2 0.05 0
1 0 0 12 3 1 558 2 1 1 1.2498 0.24172 3 2 0 1
1 0 0 12 3 1 559 3 2 0 1.7499 0.32594 3 2 0.05 1
1 0 0 12 3 1 560 4 1 1 1.3165 0.52224 5 2 0.05 1
1 0 0 12 3 1 561 5 1 1 1.4665 0.27997 4 2 0.2 1
1 0 0 12 3 1 562 6 1 1 1.6999 0.16662 5 2 0.2 0
1 0 0 12 3 1 563 7 1 0 1.7499 0.22397 5 2 0.05 1
1 0 0 12 3 1 564 8 2 1 1.1832 0.34103 5 2 0.4 1
1 0 0 12 3 1 565 9 2 0 1.7665 0.086334 5 2 0 1
1 0 0 12 3 1 566 10 2 1 1.0666 0.069652 5 2 0.2 1
1 0 0 12 3 1 567 11 2 1 1.0665 0.70182 5 2 0.1 1
1 0 0 12 3 1 568 12 2 1 0.89988 0.5071 5 2 0.4 0
1 0 0 12 3 1 569 13 2 1 0.81654 0.50777 5 2 0.4 0
1 0 0 12 3 1 570 14 2 1 1.1165 0.57654 5 2 0.05 1
1 0 0 12 3 1 571 15 2 1 0.78319 0.64737 5 2 0.4 1
1 0 0 12 3 1 572 16 2 0 1.5332 0.46224 5 2 0 0
1 0 0 12 3 1 573 17 1 1 1.6832 0.26247 3 2 0.1 1
1 0 0 12 3 1 574 18 2 1 1.6832 0.24645 2 2 0 1
1 0 0 12 3 1 575 19 1 1 1.3332 0.00018378 4 2 0.1 0
1 0 0 12 3 1 576 20 1 1 1.5498 0.88445 3 2 0 1
1 0 0 12 3 1 577 21 2 1 1.9165 0.6498 1 2 0 1
1 0 0 12 3 1 578 22 1 1 1.2332 0.26827 6 2 0.2 1
1 0 0 12 3 1 579 23 1 1 2.1332 0.24166 5 2 0 0
1 0 0 12 3 1 580 24 1 1 1.7498 0.75143 5 2 0.2 1
1 0 0 12 3 0 581 25 -1 -1 -1 -1 -1 2 0.1 1
1 0 0 12 3 1 582 26 1 1 1.2502 1.1368 5 2 0.4 0
1 0 0 12 3 1 583 27 1 1 2.8831 0.59761 5 2 0.2 0
1 0 0 12 3 1 584 28 2 1 1.8665 0.48903 5 2 0.1 0
1 0 0 12 3 1 585 29 2 1 1.0832 0.25537 6 2 0.2 1
1 0 0 12 3 1 586 30 1 1 1.0999 0.27089 6 2 0.1 0
1 0 0 12 3 1 587 31 2 1 1.3999 0.25737 6 2 0.1 1
1 0 0 12 3 1 588 32 1 1 1.5832 0.62132 5 2 0.05 0
1 0 0 12 3 1 589 33 1 1 1.7498 0.34807 5 2 0.4 0
1 0 0 12 3 1 590 34 1 1 0.91652 0.25483 5 2 0.2 0
1 0 0 12 3 1 591 35 1 1 0.99991 0.49822 6 2 0.4 1
1 0 0 12 3 1 592 36 2 1 1.3999 0.48414 5 2 0 1
1 0 0 12 3 1 593 37 2 1 1.8498 0.00018122 2 2 0.05 0
1 0 0 12 3 1 594 38 2 1 1.3832 0.065839 6 2 0.2 1
1 0 0 12 3 1 595 39 2 1 1.6498 0.00019212 4 2 0.05 0
1 0 0 12 3 1 596 40 2 1 1.2498 0.102 4 2 0.05 0
1 0 0 12 3 1 597 41 2 1 1.1999 0.60762 5 2 0.1 1
1 0 0 12 3 1 598 42 1 1 1.4332 0.2195 5 2 0.1 0
1 0 0 12 3 1 599 43 1 1 0.96659 0.20152 6 2 0.4 0
1 0 0 12 3 1 600 44 2 1 1.4998 0.42691 5 2 0 0
1 0 0 12 3 1 601 45 1 1 1.6332 0.26227 5 2 0.05 0
1 0 0 12 3 1 602 46 1 0 1.4499 0.22402 5 2 0 0
1 0 0 12 3 1 603 47 2 1 1.0499 0.61844 5 2 0.4 0
1 0 0 12 3 1 604 48 1 1 1.1665 0.42454 6 2 0.4 1
1 0 0 12 3 1 605 49 2 1 1.3332 0.15207 5 2 0.05 1
1 0 0 12 3 1 606 50 2 1 0.89986 0.091581 6 2 0.4 1
1 0 0 12 3 1 607 51 2 1 1.2498 0.25951 6 2 0.1 0
1 0 0 12 3 1 608 52 1 1 1.4998 0.20323 6 2 0.1 1
1 0 0 12 3 1 609 53 2 1 0.99988 0.20833 6 2 0.2 0
1 0 0 12 3 1 610 54 1 1 1.9999 0.25424 4 2 0.05 1
1 0 0 12 3 1 611 55 2 1 1.7003 1.0458 5 2 0.1 0
1 0 0 12 3 1 612 56 1 1 2.3165 0.58848 5 2 0 0
1 0 0 12 3 1 613 57 1 0 1.8832 0.24744 3 2 0 0
1 0 0 12 3 1 614 58 2 1 1.5332 1.414 4 2 0.2 0
1 0 0 12 3 1 615 59 1 1 1.4998 0.26356 6 2 0.4 1
1 0 0 12 3 1 616 60 2 1 1.0999 0.00018474 6 2 0.2 0
1 0 0 13 3 1 617 1 1 0 1.6831 0.41051 4 2 0 1
1 0 0 13 3 1 618 2 2 1 0.78322 0.46439 3 2 0.4 1
1 0 0 13 3 1 619 3 2 1 1.9498 0.00018474 1 2 0.1 1
1 0 0 13 3 1 620 4 1 1 1.0666 0.024763 6 2 0.4 1
1 0 0 13 3 1 621 5 2 1 1.0665 0.00020687 5 2 0.2 0
1 0 0 13 3 1 622 6 2 0 1.7998 0.00018474 5 2 0.05 0
1 0 0 13 3 1 623 7 1 1 1.0332 0.55611 6 2 0.4 1
1 0 0 13 3 1 624 8 2 1 1.0999 0.36748 6 2 0.4 0
1 0 0 13 3 1 625 9 2 1 1.0999 0.57852 6 2 0.4 0
1 0 0 13 3 1 626 10 2 1 1.8332 0.59964 4 2 0.05 1
1 0 0 13 3 1 627 11 2 0 1.8492 0.0001841 5 2 0 0
1 0 0 13 3 1 628 12 2 1 2.1665 0.28996 3 2 0.05 1
1 0 0 13 3 1 629 13 2 1 2.8332 0.50683 4 2 0 0
1 0 0 13 3 1 630 14 1 0 2.1832 0.00018314 4 2 0 1
1 0 0 13 3 1 631 15 1 1 1.3999 0.00018282 5 2 0.2 0
1 0 0 13 3 0 632 16 -1 -1 -1 -1 -1 2 0.1 0
1 0 0 13 3 1 633 17 2 0 1.4832 0.35642 5 2 0 1
1 0 0 13 3 1 634 18 1 1 1.1332 0.63058 5 2 0.4 0
1 0 0 13 3 1 635 19 2 1 1.1166 0.47844 6 2 0.4 0
1 0 0 13 3 1 636 20 1 1 1.0669 0.68666 5 2 0.2 1
1 0 0 13 3 1 637 21 1 0 2.1998 0.94448 5 2 0.05 0
1 0 0 13 3 1 638 22 1 1 1.7331 0.35535 6 2 0 1
1 0 0 13 3 1 639 23 1 1 1.6832 0.34346 5 2 0.1 0
1 0 0 13 3 1 640 24 1 0 1.9332 0.00020463 5 2 0 0
1 0 0 13 3 1 641 25 2 0 2.3832 0.42304 3 2 0 0
1 0 0 13 3 1 642 26 2 1 2.3832 0.81173 4 2 0.05 0
1 0 0 13 3 1 643 27 2 1 2.2498 0.79118 5 2 0.1 1
1 0 0 13 3 1 644 28 1 1 2.2665 0.98635 5 2 0.1 0
1 0 0 13 3 1 645 29 1 1 1.3832 0.4409 6 2 0.05 1
1 0 0 13 3 1 646 30 2 1 1.4332 0.28275 6 2 0.2 1
1 0 0 13 3 1 647 31 2 0 2.1331 0.39946 4 2 0.05 0
1 0 0 13 3 1 648 32 2 0 1.2499 0.29029 5 2 0.05 1
1 0 0 13 3 1 649 33 1 1 1.0998 0.24732 6 2 0.4 0
1 0 0 13 3 1 650 34 2 1 1.1336 0.25303 6 2 0.4 1
1 0 0 13 3 1 651 35 2 1 0.86655 0.56608 4 2 0.1 1
1 0 0 13 3 1 652 36 2 1 1.5831 0.58787 2 2 0.05 0
1 0 0 13 3 1 653 37 1 1 1.3002 0.66997 5 2 0.4 1
1 0 0 13 3 1 654 38 1 1 1.2665 0.1815 6 2 0.2 0
1 0 0 13 3 1 655 39 2 0 1.4832 1.08 2 2 0 0
1 0 0 13 3 1 656 40 2 0 1.5165 0.33362 3 2 0.1 1
1 0 0 13 3 1 657 41 1 0 1.7665 0.5268 3 2 0 1
1 0 0 13 3 1 658 42 2 1 1.1332 0.16929 6 2 0.05 1
1 0 0 13 3 1 659 43 1 1 1.0165 0.36638 6 2 0.4 0
1 0 0 13 3 1 660 44 2 0 1.7832 0.39715 2 2 0.05 0
1 0 0 13 3 1 661 45 2 1 1.1499 0.7165 6 2 0.2 1
1 0 0 13 3 1 662 46 2 1 0.93319 0.32789 6 2 0.2 0
1 0 0 13 3 1 663 47 1 1 1.2503 0.29328 6 2 0.1 0
1 0 0 13 3 1 664 48 2 1 1.1832 1.1437 5 2 0.1 0
1 0 0 13 3 1 665 49 1 1 1.1332 0.83357 5 2 0.1 1
1 0 0 13 3 1 666 50 2 0 2.1665 0.39824 2 2 0 1
1 0 0 13 3 1 667 51 1 1 1.7665 0.51623 4 2 0.2 0
1 0 0 13 3 1 668 52 2 1 1.1332 0.2871 6 2 0.4 1
1 0 0 13 3 1 669 53 2 0 1.1832 1.2571 1 2 0.2 1
1 0 0 13 3 1 670 54 1 1 2.4832 0.62506 4 2 0.1 1
1 0 0 13 3 1 671 55 2 1 1.7832 0.22963 6 2 0.2 0
1 0 0 13 3 1 672 56 2 1 2.3332 0.23637 5 2 0.1 0
1 0 0 13 3 1 673 57 1 1 1.3499 0.52976 5 2 0.2 1
1 0 0 13 3 1 674 58 2 0 1.4832 0.41419 5 2 0.05 1
1 0 0 13 3 1 675 59 2 1 0.96654 0.24433 5 2 0.2 1
1 0 0 13 3 1 676 60 2 1 1.4499 0.42975 5 2 0 0
1 0 0 14 3 1 677 1 2 1 1.0998 0.59664 3 2 0.1 1
1 0 0 14 3 1 678 2 2 1 1.9832 1.0828 5 2 0.2 0
1 0 0 14 3 1 679 3 1 1 2.0998 0.24844 5 2 0.05 0
1 0 0 14 3 1 680 4 2 1 1.2502 0.28075 6 2 0.2 1
1 0 0 14 3 1 681 5 2 1 1.0165 0.27427 6 2 0.2 0
1 0 0 14 3 1 682 6 2 1 1.3665 0.27794 5 2 0.05 0
1 0 0 14 3 1 683 7 2 1 1.0498 0.46964 5 2 0.1 1
1 0 0 14 3 1 684 8 1 1 1.6499 0.494 5 2 0.1 1
1 0 0 14 3 1 685 9 2 0 1.9498 0.27313 3 2 0.05 1
1 0 0 14 3 0 686 10 -1 -1 -1 -1 -1 2 0 1
1 0 0 14 3 1 687 11 2 1 1.2832 0.71685 3 2 0 0
1 0 0 14 3 1 688 12 1 0 1.9165 0.28031 4 2 0.05 0
1 0 0 14 3 1 689 13 2 0 2.0498 0.29617 5 2 0 0
1 0 0 14 3 1 690 14 2 1 1.1832 0.69825 5 2 0.4 1
1 0 0 14 3 1 691 15 2 1 1.2832 0.52816 6 2 0.4 0
1 0 0 14 3 1 692 16 1 1 1.2665 0.14924 5 2 0.2 1
1 0 0 14 3 1 693 17 2 0 1.0165 0.30713 5 2 0 1
1 0 0 14 3 1 694 18 2 1 0.78319 0.29261 6 2 0.2 1
1 0 0 14 3 1 695 19 1 1 0.76652 0.86348 6 2 0.4 1
1 0 0 14 3 1 696 20 1 0 1.2332 0.24106 5 2 0 0
1 0 0 14 3 1 697 21 1 0 1.3003 0.56816 5 2 0 1
1 0 0 14 3 1 698 22 1 1 0.88319 0.23479 6 2 0.2 1
1 0 0 14 3 1 699 23 1 1 1.4998 0.36229 5 2 0.1 1
1 0 0 14 3 1 700 24 1 1 1.1332 0.31606 5 2 0.1 0
1 0 0 14 3 1 701 25 1 1 1.0832 0.64074 6 2 0.4 0
1 0 0 14 3 1 702 26 1 1 1.0336 0.48251 5 2 0.4 0
1 0 0 14 3 1 703 27 1 0 1.0665 0.23314 6 2 0 0
1 0 0 14 3 1 704 28 1 1 1.0333 0.41918 5 2 0.05 0
1 0 0 14 3 1 705 29 1 1 0.93317 0.75403 5 2 0.4 0
1 0 0 14 3 1 706 30 2 1 1.1833 0.31377 3 2 0.05 1
1 0 0 14 3 1 707 31 2 0 1.4999 0.47018 5 2 0 1
1 0 0 14 3 1 708 32 2 1 0.6832 0.26096 5 2 0.2 0
1 0 0 14 3 1 709 33 2 1 0.99985 0.23961 3 2 0.1 0
1 0 0 14 3 1 710 34 2 1 0.74991 0.33308 3 2 0.05 0
1 0 0 14 3 1 711 35 2 1 2.0332 0.00018731 6 2 0.4 1
1 0 0 14 3 1 712 36 2 1 0.76651 0.5536 6 2 0.4 0
1 0 0 14 3 1 713 37 2 1 1.217 0.27155 6 2 0.05 1
1 0 0 14 3 1 714 38 2 1 0.7666 0.53864 5 2 0.1 1
1 0 0 14 3 1 715 39 1 0 1.8998 0.56606 4 2 0.05 1
1 0 0 14 3 1 716 40 2 0 1.1165 0.41597 3 2 0 0
1 0 0 14 3 1 717 41 2 0 2.0165 0.21085 3 2 0 0
1 0 0 14 3 1 718 42 1 1 2.1831 0.44855 5 2 0.2 0
1 0 0 14 3 1 719 43 2 1 2.5165 0.72635 5 2 0 1
1 0 0 14 3 1 720 44 1 1 1.9998 0.31866 6 2 0.1 0
1 0 0 14 3 1 721 45 2 1 1.6165 0.21395 6 2 0.2 1
1 0 0 14 3 1 722 46 2 1 0.78319 0.23559 6 2 0.4 0
1 0 0 14 3 1 723 47 2 1 0.93322 0.52927 6 2 0 1
1 0 0 14 3 1 724 48 1 1 1.5499 0.64334 5 2 0.4 1
1 0 0 14 3 1 725 49 1 1 1.4332 0.28558 6 2 0.2 0
1 0 0 14 3 1 726 50 1 1 1.4999 0.27489 5 2 0.1 0
1 0 0 14 3 1 727 51 1 1 2.1998 0.22892 4 2 0.05 1
1 0 0 14 3 1 728 52 2 0 0.96653 0.13854 3 2 0.05 0
1 0 0 14 3 1 729 53 1 1 1.4832 0.32646 4 2 0.1 1
1 0 0 14 3 1 730 54 1 1 1.7999 0.31651 4 2 0.2 1
1 0 0 14 3 1 731 55 2 1 1.1665 0.25402 3 2 0.1 0
1 0 0 14 3 1 732 56 2 1 1.5832 0.33759 6 2 0.4 1
1 0 0 14 3 1 733 57 2 0 1.8998 0.05271 3 2 0.05 1
1 0 0 14 3 1 734 58 2 1 2.3831 0.16017 5 2 0.1 0
1 0 0 14 3 1 735 59 1 1 1.5165 0.17841 6 2 0.4 1
1 0 0 14 3 1 736 60 1 1 1.3665 0.37586 5 2 0.2 0
2 0 0 1 1 0 1 1 2 0 2.2225 -99 -99 0 0.2 0
2 0 0 1 1 0 2 2 -1 -1 -1 -1 -1 0 0.2 0
2 0 0 1 1 0 3 3 2 1 1.0832 -99 -99 0 0.2 0
2 0 0 1 1 0 4 4 1 0 2.3999 -99 -99 0 0.2 0
2 0 0 1 1 0 5 5 1 0 2.4665 -99 -99 0 0.2 0
2 0 0 1 1 0 6 6 2 0 1.5332 -99 -99 0 0.4 0
2 0 0 1 1 0 7 7 -1 -1 -1 -1 -1 0 0.4 0
2 0 0 1 1 0 8 8 2 1 1.9166 -99 -99 0 0.4 0
2 0 0 1 1 0 9 9 2 1 2.4165 -99 -99 0 0.4 0
2 0 0 1 1 0 10 10 2 0 1.6499 -99 -99 0 0.4 0
2 0 0 1 1 0 11 11 -1 -1 -1 -1 -1 0 0.4 0
2 0 0 1 1 0 12 12 1 1 1.3499 -99 -99 0 0.2 0
2 0 0 1 1 0 13 13 1 1 1.1333 -99 -99 0 0.4 0
2 0 0 1 1 0 14 14 1 1 0.84989 -99 -99 0 0.4 0
2 0 0 1 1 0 15 15 2 1 1.2332 -99 -99 0 0.4 0
2 0 0 1 1 0 16 16 1 1 1.2999 -99 -99 0 0.2 0
2 0 0 1 1 0 17 17 2 1 0.88324 -99 -99 0 0.2 0
2 0 0 1 1 0 18 18 1 1 0.84996 -99 -99 0 0.2 0
2 0 0 1 1 0 19 19 2 1 0.86655 -99 -99 0 0.2 0
2 0 0 1 1 0 20 20 1 0 1.2332 -99 -99 0 0.2 0
2 0 0 1 1 0 21 21 2 1 1.1332 -99 -99 0 0.2 0
2 0 0 1 1 0 22 22 1 1 0.76653 -99 -99 0 0.4 0
2 0 0 1 1 0 23 23 1 1 1.1665 -99 -99 0 0.2 0
2 0 0 1 1 0 24 24 2 1 0.78321 -99 -99 0 0.4 0
2 0 0 1 1 0 25 25 1 1 0.76661 -99 -99 0 0.4 0
2 0 0 1 1 0 26 26 1 1 0.73328 -99 -99 0 0.4 0
2 0 0 1 1 0 27 27 2 1 0.73322 -99 -99 0 0.4 0
2 0 0 1 1 0 28 28 2 1 0.76657 -99 -99 0 0.4 0
2 0 0 1 1 0 29 29 2 1 0.66656 -99 -99 0 0.2 0
2 0 0 1 1 0 30 30 1 1 0.64991 -99 -99 0 0.4 0
2 0 0 1 1 0 31 31 2 1 0.61656 -99 -99 0 0.4 0
2 0 0 1 1 0 32 32 1 1 0.54992 -99 -99 0 0.4 0
2 0 0 1 1 0 33 33 1 0 1.9832 -99 -99 0 0.2 0
2 0 0 1 1 0 34 34 1 1 0.88317 -99 -99 0 0.2 0
2 0 0 1 1 0 35 35 2 1 0.66659 -99 -99 0 0.2 0
2 0 0 1 1 0 36 36 1 1 0.66664 -99 -99 0 0.4 0
2 0 0 1 1 0 37 37 2 1 0.61657 -99 -99 0 0.4 0
2 0 0 1 1 0 38 38 1 1 0.63329 -99 -99 0 0.2 0
2 0 0 1 1 0 39 39 1 1 0.6166 -99 -99 0 0.2 0
2 0 0 1 1 0 40 40 1 1 0.4999 -99 -99 0 0.2 0
2 0 0 1 1 0 41 41 2 1 0.53322 -99 -99 0 0.4 0
2 0 0 1 1 0 42 42 2 1 0.69991 -99 -99 0 0.2 0
2 0 0 1 1 0 43 43 1 1 0.5499 -99 -99 0 0.4 0
2 0 0 1 1 0 44 44 2 1 0.59992 -99 -99 0 0.2 0
2 0 0 1 1 0 45 45 1 1 0.78324 -99 -99 0 0.2 0
2 0 0 1 1 0 46 46 2 1 0.63323 -99 -99 0 0.2 0
2 0 0 1 1 0 47 47 2 1 0.7166 -99 -99 0 0.4 0
2 0 0 1 1 0 48 48 2 1 0.49991 -99 -99 0 0.4 0
2 0 0 1 1 0 49 49 1 1 0.54989 -99 -99 0 0.2 0
2 0 0 1 1 0 50 50 1 1 0.54989 -99 -99 0 0.4 0
2 0 0 1 1 0 51 51 1 1 0.48322 -99 -99 0 0.4 0
2 0 0 1 1 0 52 52 1 1 0.54991 -99 -99 0 0.2 0
2 0 0 1 1 0 53 53 1 1 0.5166 -99 -99 0 0.4 0
2 0 0 1 1 0 54 54 1 1 0.51657 -99 -99 0 0.2 0
2 0 0 1 1 0 55 55 2 1 0.5499 -99 -99 0 0.4 0
2 0 0 1 1 0 56 56 1 1 0.51655 -99 -99 0 0.2 0
2 0 0 1 1 0 57 57 2 1 0.51658 -99 -99 0 0.4 0
2 0 0 1 1 0 58 58 1 1 0.48329 -99 -99 0 0.2 0
2 0 0 1 1 0 59 59 2 1 0.46661 -99 -99 0 0.2 0
2 0 0 1 1 0 60 60 2 1 0.48328 -99 -99 0 0.4 0
2 0 0 2 2 0 61 1 1 1 1.0499 -99 -99 0 0.2 1
2 0 0 2 2 0 62 2 2 1 0.8999 -99 -99 0 0.2 0
2 0 0 2 2 0 63 3 1 1 0.64994 -99 -99 0 0.4 0
2 0 0 2 2 0 64 4 2 1 0.66655 -99 -99 0 0.4 1
2 0 0 2 2 0 65 5 1 0 1.7832 -99 -99 0 0.1 0
2 0 0 2 2 0 66 6 1 0 1.2166 -99 -99 0 0.05 0
2 0 0 2 2 0 67 7 1 0 1.6166 -99 -99 0 0.05 1
2 0 0 2 2 0 68 8 1 1 1.3998 -99 -99 0 0.1 1
2 0 0 2 2 0 69 9 1 0 2.3166 -99 -99 0 0.1 1
2 0 0 2 2 0 70 10 -1 -1 -1 -1 -1 0 0 0
2 0 0 2 2 0 71 11 2 1 0.81648 -99 -99 0 0.4 0
2 0 0 2 2 0 72 12 1 0 1.6503 -99 -99 0 0.05 0
2 0 0 2 2 0 73 13 2 1 1.2332 -99 -99 0 0.2 1
2 0 0 2 2 0 74 14 1 1 1.0999 -99 -99 0 0.4 1
2 0 0 2 2 0 75 15 2 1 1.4166 -99 -99 0 0.05 1
2 0 0 2 2 0 76 16 1 1 1.1166 -99 -99 0 0.2 0
2 0 0 2 2 0 77 17 1 1 0.76659 -99 -99 0 0.4 0
2 0 0 2 2 0 78 18 1 1 1.4332 -99 -99 0 0.05 1
2 0 0 2 2 0 79 19 1 1 1.1999 -99 -99 0 0.2 0
2 0 0 2 2 0 80 20 1 1 1.6832 -99 -99 0 0 0
2 0 0 2 2 0 81 21 1 1 1.9332 -99 -99 0 0.2 1
2 0 0 2 2 0 82 22 1 1 1.6498 -99 -99 0 0.1 1
2 0 0 2 2 0 83 23 1 1 1.2666 -99 -99 0 0.4 1
2 0 0 2 2 0 84 24 2 1 0.89988 -99 -99 0 0.4 0
2 0 0 2 2 0 85 25 2 1 1.8499 -99 -99 0 0.2 1
2 0 0 2 2 0 86 26 2 1 1.6999 -99 -99 0 0.05 0
2 0 0 2 2 0 87 27 1 1 1.4999 -99 -99 0 0 0
2 0 0 2 2 0 88 28 2 1 0.99989 -99 -99 0 0.2 0
2 0 0 2 2 0 89 29 2 1 1.3332 -99 -99 0 0 0
2 0 0 2 2 0 90 30 1 1 1.4332 -99 -99 0 0.05 0
2 0 0 2 2 0 91 31 1 1 1.1333 -99 -99 0 0 1
2 0 0 2 2 0 92 32 2 1 1.3499 -99 -99 0 0.1 0
2 0 0 2 2 0 93 33 2 0 1.2666 -99 -99 0 0.1 1
2 0 0 2 2 0 94 34 1 0 0.91657 -99 -99 0 0 1
2 0 0 2 2 0 95 35 2 1 0.73322 -99 -99 0 0.4 0
2 0 0 2 2 0 96 36 1 1 0.66653 -99 -99 0 0.4 0
2 0 0 2 2 0 97 37 2 0 2.2832 -99 -99 0 0.1 0
2 0 0 2 2 0 98 38 1 1 2.5332 -99 -99 0 0 1
2 0 0 2 2 0 99 39 1 1 1.1999 -99 -99 0 0.05 0
2 0 0 2 2 0 100 40 2 1 0.74994 -99 -99 0 0 1
2 0 0 2 2 0 101 41 2 1 1.0165 -99 -99 0 0.2 0
2 0 0 2 2 0 102 42 2 1 1.0999 -99 -99 0 0.4 1
2 0 0 2 2 0 103 43 2 0 1.4999 -99 -99 0 0.1 0
2 0 0 2 2 0 104 44 2 1 0.7832 -99 -99 0 0.4 1
2 0 0 2 2 0 105 45 1 0 1.0499 -99 -99 0 0 0
2 0 0 2 2 0 106 46 1 0 0.93324 -99 -99 0 0 0
2 0 0 2 2 0 107 47 2 1 0.81657 -99 -99 0 0.1 1
2 0 0 2 2 0 108 48 1 1 1.3499 -99 -99 0 0.1 0
2 0 0 2 2 0 109 49 2 0 0.94991 -99 -99 0 0.2 1
2 0 0 2 2 0 110 50 1 1 0.69987 -99 -99 0 0.4 1
2 0 0 2 2 0 111 51 1 1 0.94991 -99 -99 0 0.2 0
2 0 0 2 2 0 112 52 2 1 0.9169 -99 -99 0 0.1 1
2 0 0 2 2 0 113 53 2 1 0.91655 -99 -99 0 0.05 1
2 0 0 2 2 0 114 54 1 0 1.2999 -99 -99 0 0.1 0
2 0 0 2 2 0 115 55 2 1 0.94989 -99 -99 0 0.2 1
2 0 0 2 2 0 116 56 1 1 0.91658 -99 -99 0 0.05 1
2 0 0 2 2 0 117 57 1 1 1.5832 -99 -99 0 0.05 0
2 0 0 2 2 0 118 58 1 1 0.89991 -99 -99 0 0 1
2 0 0 2 2 0 119 59 2 1 0.94987 -99 -99 0 0 1
2 0 0 2 2 0 120 60 1 1 0.59988 -99 -99 0 0.05 1
2 0 0 3 3 1 121 1 2 1 1.8999 2.1261 5 2 0.05 0
2 0 0 3 3 1 122 2 1 1 2.5165 2.3167 4 2 0 0
2 0 0 3 3 1 123 3 2 0 1.9499 0.68273 5 2 0 1
2 0 0 3 3 0 124 4 -1 -1 -1 -1 -1 2 0.05 0
2 0 0 3 3 1 125 5 1 1 2.0999 2.1115 5 2 0.2 1
2 0 0 3 3 0 126 6 -1 -1 -1 -1 -1 2 0 0
2 0 0 3 3 1 127 7 2 1 1.9665 0.91933 4 2 0.1 0
2 0 0 3 3 1 128 8 1 0 2.1166 0.81481 5 2 0.05 0
2 0 0 3 3 1 129 9 1 1 1.9499 1.3529 6 2 0.4 0
2 0 0 3 3 1 130 10 1 1 0.99989 0.54697 6 2 0.4 0
2 0 0 3 3 1 131 11 2 1 1.6999 1.4428 5 2 0.05 1
2 0 0 3 3 1 132 12 1 1 1.3999 0.42608 6 2 0.1 0
2 0 0 3 3 1 133 13 2 0 2.2165 1.145 3 2 0.2 0
2 0 0 3 3 1 134 14 1 1 1.8999 1.1923 5 2 0 0
2 0 0 3 3 1 135 15 2 1 2.3499 0.38812 5 2 0.2 1
2 0 0 3 3 1 136 16 2 1 2.1665 0.59066 5 2 0.1 1
2 0 0 3 3 1 137 17 2 0 1.3832 0.43293 3 2 0 1
2 0 0 3 3 1 138 18 1 1 1.8166 1.4872 5 2 0.1 1
2 0 0 3 3 1 139 19 2 1 2.1666 0.45393 6 2 0.4 0
2 0 0 3 3 1 140 20 1 1 1.1332 0.32726 6 2 0.4 1
2 0 0 3 3 1 141 21 2 1 0.69988 0.31137 6 2 0.4 0
2 0 0 3 3 1 142 22 1 0 1.4999 0.42195 5 2 0 0
2 0 0 3 3 1 143 23 1 1 0.96655 0.24731 6 2 0.2 0
2 0 0 3 3 1 144 24 1 1 1.0999 0.49127 5 2 0.05 0
2 0 0 3 3 1 145 25 2 1 1.0832 0.25268 6 2 0.2 0
2 0 0 3 3 1 146 26 2 1 1.0665 0.27275 6 2 0.4 1
2 0 0 3 3 1 147 27 1 1 0.81656 0.73438 6 2 0.4 0
2 0 0 3 3 1 148 28 2 1 1.2832 0.24615 6 2 0.1 1
2 0 0 3 3 1 149 29 2 1 0.79988 0.25342 6 2 0.2 1
2 0 0 3 3 1 150 30 1 0 1.2166 0.30752 5 2 0.05 1
2 0 0 3 3 1 151 31 2 1 0.5999 0.48828 6 2 0.2 0
2 0 0 3 3 1 152 32 1 1 1.1665 0.25483 5 2 0 1
2 0 0 3 3 1 153 33 1 1 0.74991 0.29585 5 2 0.1 0
2 0 0 3 3 1 154 34 1 0 1.5999 0.40486 3 2 0 1
2 0 0 3 3 1 155 35 1 1 0.98327 0.35027 6 2 0.2 0
2 0 0 3 3 1 156 36 2 1 0.61656 0.2486 6 2 0.2 1
2 0 0 3 3 1 157 37 1 1 0.91657 0.40234 5 2 0 0
2 0 0 3 3 1 158 38 2 1 1.1999 0.28297 6 2 0.2 0
2 0 0 3 3 1 159 39 1 1 0.8666 0.32568 6 2 0.4 1
2 0 0 3 3 1 160 40 2 1 2.7166 0.57306 2 2 0 1
2 0 0 3 3 1 161 41 1 1 1.7999 2.735 2 2 0.1 1
2 0 0 3 3 1 162 42 2 1 2.2499 0.46473 6 2 0.4 0
2 0 0 3 3 1 163 43 1 1 2.2832 0.3551 3 2 0.05 1
2 0 0 3 3 1 164 44 2 1 2.0832 0.29021 4 2 0.05 0
2 0 0 3 3 1 165 45 2 1 1.3832 0.25625 6 2 0.4 1
2 0 0 3 3 1 166 46 2 1 2.0166 0.51792 3 2 0.1 0
2 0 0 3 3 1 167 47 1 1 1.2499 0.27995 5 2 0.1 0
2 0 0 3 3 1 168 48 2 1 2.5832 0.73431 4 2 0.1 1
2 0 0 3 3 1 169 49 1 1 1.0666 0.24662 6 2 0.4 1
2 0 0 3 3 1 170 50 1 1 0.79992 1.3263 5 2 0.1 1
2 0 0 3 3 1 171 51 1 1 1.3332 0.33266 4 2 0.05 1
2 0 0 3 3 1 172 52 1 0 2.3499 0.29004 3 2 0 1
2 0 0 3 3 0 173 53 -1 -1 -1 -1 -1 2 0.05 0
2 0 0 3 3 1 174 54 2 1 1.4166 0.08321 6 2 0.4 1
2 0 0 3 3 1 175 55 2 1 2.7165 0.36384 3 2 0 0
2 0 0 3 3 1 176 56 1 1 1.9999 0.31825 4 2 0.2 1
2 0 0 3 3 1 177 57 2 1 2.7165 1.4857 3 2 0.1 0
2 0 0 3 3 1 178 58 1 1 1.5166 0.44621 4 2 0.2 1
2 0 0 3 3 1 179 59 1 1 2.1666 0.24705 4 2 0.05 1
2 0 0 3 3 1 180 60 1 0 2.8999 0.37026 3 2 0.05 1
2 0 0 4 3 1 181 1 1 1 2.7666 1.3592 4 2 0 0
2 0 0 4 3 1 182 2 2 1 1.3832 0.52158 6 2 0.4 0
2 0 0 4 3 1 183 3 1 0 1.617 0.45914 4 2 0 1
2 0 0 4 3 1 184 4 1 1 1.5999 0.63259 4 2 0.2 0
2 0 0 4 3 1 185 5 1 1 1.2499 0.2687 6 2 0.4 0
2 0 0 4 3 1 186 6 1 1 2.8499 0.53534 3 2 0.05 0
2 0 0 4 3 1 187 7 1 1 1.7833 1.7219 5 2 0.1 0
2 0 0 4 3 1 188 8 2 1 2.5332 0.34868 6 2 0.2 1
2 0 0 4 3 1 189 9 1 0 1.9166 0.29739 5 2 0 1
2 0 0 4 3 1 190 10 1 1 1.0832 0.28202 5 2 0.2 0
2 0 0 4 3 1 191 11 1 1 1.0665 0.97189 4 2 0.1 1
2 0 0 4 3 1 192 12 1 1 2.5999 0.32421 3 2 0.05 0
2 0 0 4 3 1 193 13 1 0 1.6999 2.1628 4 2 0 0
2 0 0 4 3 1 194 14 2 1 2.9998 0.3802 4 2 0.1 1
2 0 0 4 3 1 195 15 1 1 1.0998 0.73682 6 2 0.4 1
2 0 0 4 3 1 196 16 2 1 0.88326 0.48786 6 2 0.4 0
2 0 0 4 3 0 197 17 -1 -1 -1 -1 -1 2 0 0
2 0 0 4 3 1 198 18 1 1 0.88324 0.28734 6 2 0.4 0
2 0 0 4 3 1 199 19 2 1 0.8666 0.25632 6 2 0.2 0
2 0 0 4 3 0 200 20 -1 -1 -1 -1 -1 2 0 0
2 0 0 4 3 1 201 21 2 1 0.81662 0.26538 6 2 0.2 0
2 0 0 4 3 1 202 22 2 1 1.2665 0.31512 5 2 0.05 0
2 0 0 4 3 1 203 23 1 1 2.4499 1.0437 4 2 0.2 1
2 0 0 4 3 1 204 24 2 1 0.88327 0.31846 6 2 0.4 1
2 0 0 4 3 1 205 25 2 1 2.0333 0.58378 4 2 0.05 1
2 0 0 4 3 0 206 26 -1 -1 -1 -1 -1 2 0 1
2 0 0 4 3 1 207 27 2 1 1.2665 0.26457 4 2 0 1
2 0 0 4 3 1 208 28 1 1 0.96661 0.23523 4 2 0.05 0
2 0 0 4 3 1 209 29 1 1 1.1832 0.23392 4 2 0 0
2 0 0 4 3 1 210 30 2 1 2.4999 0.30014 4 2 0 0
2 0 0 4 3 1 211 31 1 1 1.0499 0.26126 5 2 0.4 1
2 0 0 4 3 1 212 32 2 1 0.61657 0.33027 6 2 0.4 1
2 0 0 4 3 1 213 33 1 1 0.84984 0.41866 6 2 0.4 1
2 0 0 4 3 1 214 34 2 1 1.1999 0.28006 5 2 0.05 1
2 0 0 4 3 1 215 35 1 1 0.88321 0.28979 6 2 0.4 0
2 0 0 4 3 1 216 36 2 1 1.1498 0.3117 5 2 0.1 1
2 0 0 4 3 1 217 37 2 1 1.4499 0.29668 4 2 0.1 0
2 0 0 4 3 1 218 38 2 1 1.2999 0.33679 4 2 0.1 0
2 0 0 4 3 1 219 39 2 1 0.79989 0.32274 5 2 0.2 1
2 0 0 4 3 1 220 40 2 0 0.83317 0.31607 5 2 0 1
2 0 0 4 3 1 221 41 1 1 1.2999 0.26718 5 2 0.1 1
2 0 0 4 3 1 222 42 2 1 0.73322 0.26649 5 2 0.2 0
2 0 0 4 3 1 223 43 1 1 2.1165 0.36213 4 2 0.2 1
2 0 0 4 3 1 224 44 2 0 1.0666 0.76131 5 2 0.05 1
2 0 0 4 3 1 225 45 2 1 1.0503 0.26422 5 2 0.05 0
2 0 0 4 3 1 226 46 1 1 1.7499 0.28807 3 2 0.2 1
2 0 0 4 3 1 227 47 2 1 1.6498 0.39289 4 2 0.05 0
2 0 0 4 3 1 228 48 2 1 1.1832 0.28203 5 2 0.2 1
2 0 0 4 3 1 229 49 1 1 1.8165 1.1089 5 2 0.2 0
2 0 0 4 3 1 230 50 2 1 1.0332 0.57437 6 2 0.4 1
2 0 0 4 3 1 231 51 2 1 1.3332 0.39366 5 2 0.1 1
2 0 0 4 3 1 232 52 2 1 1.1665 0.37835 5 2 0.1 0
2 0 0 4 3 1 233 53 1 1 1.2665 0.32778 5 2 0.1 1
2 0 0 4 3 1 234 54 2 1 0.98322 0.61106 5 2 0.05 1
2 0 0 4 3 1 235 55 2 0 0.83322 0.33643 4 2 0.1 0
2 0 0 4 3 1 236 56 1 1 2.6165 0.61793 3 2 0.05 1
2 0 0 4 3 1 237 57 2 0 1.0499 0.33386 4 2 0.05 1
2 0 0 4 3 1 238 58 2 0 1.3832 0.28092 4 2 0.1 0
2 0 0 4 3 1 239 59 2 1 1.017 0.26856 6 2 0.4 0
2 0 0 4 3 1 240 60 2 0 2.1332 0.42787 3 2 0 1
2 0 0 5 3 1 241 1 2 0 2.0998 1.8386 5 2 0 1
2 0 0 5 3 1 242 2 2 1 1.0165 0.28409 5 2 0.1 1
2 0 0 5 3 1 243 3 1 1 2.8832 1.0123 3 2 0 1
2 0 0 5 3 1 244 4 2 0 1.0832 0.45547 4 2 0.05 1
2 0 0 5 3 1 245 5 1 1 1.4832 0.25709 4 2 0.1 1
2 0 0 5 3 1 246 6 2 1 0.86654 0.26757 5 2 0.2 1
2 0 0 5 3 1 247 7 1 0 1.8332 0.29409 4 2 0.1 0
2 0 0 5 3 1 248 8 1 0 1.0166 0.25797 4 2 0 0
2 0 0 5 3 1 249 9 2 1 1.7998 0.25421 4 2 0.1 1
2 0 0 5 3 1 250 10 1 1 0.91657 0.2869 4 2 0.05 0
2 0 0 5 3 1 251 11 1 1 0.89994 0.21423 5 2 0.2 1
2 0 0 5 3 1 252 12 2 1 0.63323 0.2359 6 2 0.4 1
2 0 0 5 3 1 253 13 2 1 0.66663 0.2706 6 2 0.4 0
2 0 0 5 3 1 254 14 1 1 1.0498 0.25631 6 2 0.2 1
2 0 0 5 3 1 255 15 2 1 0.88324 0.40157 6 2 0 1
2 0 0 5 3 1 256 16 2 0 0.68322 0.70902 1 2 0.4 1
2 0 0 5 3 1 257 17 1 1 0.91661 0.32309 6 2 0.1 0
2 0 0 5 3 1 258 18 1 1 2.2999 0.60102 5 2 0.05 1
2 0 0 5 3 1 259 19 1 1 1.5499 0.37774 4 2 0 0
2 0 0 5 3 1 260 20 1 0 2.5332 0.42856 3 2 0.05 1
2 0 0 5 3 1 261 21 2 1 1.9832 0.25167 4 2 0.1 0
2 0 0 5 3 1 262 22 2 1 1.6166 0.49545 4 2 0.05 0
2 0 0 5 3 1 263 23 2 1 1.9499 0.88483 4 2 0.2 0
2 0 0 5 3 1 264 24 1 1 0.76658 0.91355 5 2 0.1 0
2 0 0 5 3 1 265 25 2 1 1.4332 0.31471 5 2 0.05 1
2 0 0 5 3 1 266 26 1 1 0.9666 0.26194 6 2 0.4 0
2 0 0 5 3 1 267 27 1 1 0.61655 0.51435 6 2 0.4 1
2 0 0 5 3 1 268 28 1 0 1.5666 0.278 4 2 0 0
2 0 0 5 3 1 269 29 1 0 1.3999 0.24241 4 2 0 1
2 0 0 5 3 1 270 30 1 1 1.3165 0.37904 4 2 0.05 0
2 0 0 5 3 1 271 31 2 0 1.9499 0.3007 3 2 0.05 1
2 0 0 5 3 1 272 32 2 1 1.2499 0.25339 5 2 0.2 0
2 0 0 5 3 1 273 33 1 1 2.8498 0.7929 3 2 0.1 1
2 0 0 5 3 1 274 34 2 0 2.7666 0.32077 4 2 0 0
2 0 0 5 3 1 275 35 2 1 1.2832 0.27988 6 2 0.4 0
2 0 0 5 3 1 276 36 1 1 1.1666 0.50884 5 2 0.1 0
2 0 0 5 3 1 277 37 1 1 2.7499 0.26549 3 2 0.05 0
2 0 0 5 3 1 278 38 1 1 1.1832 0.24615 5 2 0.2 0
2 0 0 5 3 1 279 39 1 1 1.2665 0.24123 5 2 0.2 0
2 0 0 5 3 1 280 40 1 0 2.4499 0.31629 5 2 0.05 0
2 0 0 5 3 1 281 41 1 1 0.98285 0.287 6 2 0.4 1
2 0 0 5 3 1 282 42 2 1 1.2832 0.23919 5 2 0.05 1
2 0 0 5 3 1 283 43 1 1 0.73324 0.23089 6 2 0.2 1
2 0 0 5 3 1 284 44 2 1 0.96655 0.30292 5 2 0.2 0
2 0 0 5 3 1 285 45 1 1 1.2999 0.35736 4 2 0 0
2 0 0 5 3 1 286 46 2 1 0.96654 0.31936 4 2 0.05 0
2 0 0 5 3 1 287 47 1 1 0.79991 0.61703 5 2 0.2 0
2 0 0 5 3 1 288 48 2 1 0.84994 0.62937 5 2 0 1
2 0 0 5 3 1 289 49 2 1 0.99992 0.25114 5 2 0.1 0
2 0 0 5 3 1 290 50 2 1 1.2332 0.23841 6 2 0.4 1
2 0 0 5 3 1 291 51 2 1 0.74993 0.23811 6 2 0.4 0
2 0 0 5 3 1 292 52 2 1 1.3499 0.33343 4 2 0 0
2 0 0 5 3 1 293 53 2 1 1.2666 0.28425 5 2 0.1 1
2 0 0 5 3 1 294 54 2 0 1.1332 0.4099 4 2 0 1
2 0 0 5 3 1 295 55 1 1 0.93323 0.43563 5 2 0.1 1
2 0 0 5 3 1 296 56 2 1 0.76657 0.25022 6 2 0.4 1
2 0 0 5 3 1 297 57 2 1 1.5498 0.2326 4 2 0.2 1
2 0 0 5 3 1 298 58 1 1 0.78326 0.21459 6 2 0.4 0
2 0 0 5 3 1 299 59 2 1 0.79987 0.44466 6 2 0.2 1
2 0 0 5 3 1 300 60 1 1 0.9166 0.67735 6 2 0.4 0
2 0 0 6 3 1 301 1 2 0 1.0725 0.33753 6 2 0.05 0
2 0 0 6 3 1 302 2 2 1 1.4999 0.40661 3 2 0.2 0
2 0 0 6 3 1 303 3 2 1 0.89995 0.76122 5 2 0.05 0
2 0 0 6 3 1 304 4 2 1 2.1499 0.19362 5 2 0.05 1
2 0 0 6 3 1 305 5 1 1 0.68325 0.45345 6 2 0.4 0
2 0 0 6 3 1 306 6 1 1 1.2333 0.20894 5 2 0.1 0
2 0 0 6 3 1 307 7 2 1 0.78326 0.21618 5 2 0 1
2 0 0 6 3 1 308 8 1 1 0.64993 0.2763 6 2 0.4 0
2 0 0 6 3 1 309 9 1 1 1.5832 0.22068 6 2 0.1 0
2 0 0 6 3 1 310 10 2 1 0.93325 0.21366 6 2 0.1 1
2 0 0 6 3 1 311 11 2 0 0.86656 0.19303 6 2 0.05 1
2 0 0 6 3 1 312 12 2 1 0.61659 0.1354 6 2 0.05 1
2 0 0 6 3 1 313 13 2 1 1.4332 0.22373 6 2 0.05 1
2 0 0 6 3 1 314 14 2 0 0.73328 0.27154 6 2 0.05 1
2 0 0 6 3 1 315 15 1 1 0.73326 0.27022 6 2 0.4 1
2 0 0 6 3 1 316 16 2 1 1.0166 6.2734 6 2 0.4 1
2 0 0 6 3 1 317 17 1 1 1.0999 0.21747 6 2 0.4 1
2 0 0 6 3 1 318 18 2 1 2.9831 0.2166 5 2 0.1 1
2 0 0 6 3 1 319 19 1 1 1.2999 0.28221 4 2 0 0
2 0 0 6 3 1 320 20 2 1 0.78323 0.25477 5 2 0.2 0
2 0 0 6 3 1 321 21 1 1 2.7166 0.2626 4 2 0.05 0
2 0 0 6 3 1 322 22 2 1 1.2832 0.216 4 2 0.05 0
2 0 0 6 3 1 323 23 1 1 0.93324 0.21678 5 2 0.1 1
2 0 0 6 3 1 324 24 2 0 0.91658 0.13509 4 2 0.05 0
2 0 0 6 3 1 325 25 2 1 0.93364 0.29868 4 2 0.1 1
2 0 0 6 3 1 326 26 2 1 0.94989 0.31905 4 2 0.1 0
2 0 0 6 3 1 327 27 2 1 0.88322 0.3258 4 2 0.1 0
2 0 0 6 3 1 328 28 2 1 0.84991 0.28607 4 2 0.05 0
2 0 0 6 3 1 329 29 1 0 1.3499 0.25162 4 2 0 0
2 0 0 6 3 1 330 30 2 1 0.54992 0.42588 5 2 0.4 0
2 0 0 6 3 1 331 31 1 0 1.3166 0.13971 5 2 0 0
2 0 0 6 3 1 332 32 2 1 0.58326 0.26055 5 2 0.2 1
2 0 0 6 3 1 333 33 2 1 1.1999 0.089617 5 2 0 1
2 0 0 6 3 1 334 34 2 1 1.1666 0.086331 6 2 0.4 0
2 0 0 6 3 1 335 35 1 1 0.71656 0.22089 6 2 0.2 1
2 0 0 6 3 1 336 36 2 1 1.0499 0.20104 5 2 0.1 0
2 0 0 6 3 1 337 37 1 1 0.7332 0.26597 6 2 0.4 1
2 0 0 6 3 1 338 38 2 0 1.1165 0.2573 5 2 0.1 1
2 0 0 6 3 1 339 39 1 1 0.71655 0.20965 5 2 0.2 0
2 0 0 6 3 1 340 40 1 1 0.78326 0.00017961 5 2 0.2 1
2 0 0 6 3 1 341 41 2 0 1.9999 0.23117 5 2 0 1
2 0 0 6 3 1 342 42 1 1 0.86659 0.20175 5 2 0.2 0
2 0 0 6 3 1 343 43 2 0 1.6332 0.2147 5 2 0.2 0
2 0 0 6 3 1 344 44 2 1 1.0166 0.26837 5 2 0.2 1
2 0 0 6 3 0 345 45 -1 -1 -1 -1 -1 2 0.1 1
2 0 0 6 3 1 346 46 2 0 1.7833 0.33676 4 2 0 0
2 0 0 6 3 1 347 47 2 1 1.3 0.21499 4 2 0 1
2 0 0 6 3 1 348 48 2 1 1.0003 0.21261 6 2 0.4 0
2 0 0 6 3 1 349 49 2 1 0.56657 0.22052 6 2 0.4 1
2 0 0 6 3 1 350 50 2 1 0.91656 0.021856 6 2 0.2 0
2 0 0 6 3 1 351 51 2 0 1.5999 0.067545 4 2 0.05 1
2 0 0 6 3 1 352 52 1 0 1.1166 0.21089 4 2 0 0
2 0 0 6 3 1 353 53 1 1 1.0666 0.023633 5 2 0.2 1
2 0 0 6 3 1 354 54 2 1 0.71659 0.68824 6 2 0.2 1
2 0 0 6 3 1 355 55 1 1 0.71657 0.21502 6 2 0.4 0
2 0 0 6 3 1 356 56 2 1 0.48325 0.38567 6 2 0.4 1
2 0 0 6 3 1 357 57 2 0 1.7665 0.00021778 4 2 0 1
2 0 0 6 3 1 358 58 2 0 1.1166 0.23649 4 2 0 0
2 0 0 6 3 1 359 59 2 0 2.5666 0.30771 4 2 0 1
2 0 0 6 3 1 360 60 1 1 1.2666 0.20086 4 2 0.1 0
2 0 0 7 2 0 361 1 -1 -1 -1 -1 -1 0 0.4 0
2 0 0 7 2 0 362 2 -1 -1 -1 -1 -1 0 0.4 0
2 0 0 7 2 0 363 3 2 1 2.0333 -99 -99 0 0.4 0
2 0 0 7 2 0 364 4 2 1 1.4832 -99 -99 0 0.4 0
2 0 0 7 2 0 365 5 1 1 1.4332 -99 -99 0 0.4 0
2 0 0 7 2 0 366 6 1 1 1.7332 -99 -99 0 0.4 0
2 0 0 7 2 0 367 7 1 1 1.3832 -99 -99 0 0.4 0
2 0 0 7 2 0 368 8 -1 -1 -1 -1 -1 0 0.4 0
2 0 0 8 3 0 369 1 -1 -1 -1 -1 -1 0 0.05 0
2 0 0 8 3 0 370 2 -1 -1 -1 -1 -1 0 0 1
2 0 0 8 3 1 371 3 1 1 1.5666 -99 2 0 0.05 1
2 0 0 8 3 0 372 4 -1 -1 -1 -1 -1 0 0.05 1
2 0 0 8 3 1 373 5 1 1 0.98327 -99 2 0 0.2 1
2 0 0 8 3 1 374 6 2 0 1.9499 -99 2 0 0.2 0
2 0 0 8 3 1 375 7 2 1 0.8499 -99 2 0 0.05 1
2 0 0 8 3 1 376 8 2 1 1.0833 -99 3 0 0.4 1
2 0 0 8 3 1 377 9 2 0 1.8499 -99 1 0 0 1
2 0 0 8 3 1 378 10 2 1 1.7332 -99 2 0 0.2 1
2 0 0 8 3 1 379 11 2 1 1.3499 -99 2 0 0.1 1
2 0 0 8 3 1 380 12 2 1 0.66655 -99 1 0 0.4 0
2 0 0 8 3 1 381 13 2 1 0.89994 -99 3 0 0.4 0
2 0 0 8 3 1 382 14 1 0 1.1999 -99 2 0 0.05 1
2 0 0 8 3 1 383 15 2 1 1.0333 -99 3 0 0.4 1
2 0 0 8 3 1 384 16 1 1 1.6166 -99 2 0 0 0
2 0 0 8 3 1 385 17 2 0 1.0666 -99 3 0 0.1 1
2 0 0 8 3 1 386 18 1 0 1.3332 -99 2 0 0 1
2 0 0 8 3 1 387 19 1 1 1.5665 -99 2 0 0.1 0
2 0 0 8 3 1 388 20 2 0 1.0832 -99 2 0 0 1
2 0 0 8 3 1 389 21 2 1 0.89992 -99 2 0 0 1
2 0 0 8 3 1 390 22 1 1 2.5499 -99 2 0 0.2 1
2 0 0 8 3 1 391 23 1 1 1.6499 -99 1 0 0 0
2 0 0 8 3 1 392 24 1 1 1.9 -99 1 0 0.2 1
2 0 0 8 3 1 393 25 1 1 1.9666 -99 1 0 0.1 1
2 0 0 8 3 1 394 26 1 1 1.3832 -99 3 0 0.4 0
2 0 0 8 3 1 395 27 1 1 1.6166 -99 2 0 0.2 0
2 0 0 8 3 1 396 28 1 0 1.1499 -99 2 0 0.1 0
2 0 0 8 3 1 397 29 2 1 2.2499 -99 2 0 0.2 1
2 0 0 8 3 1 398 30 1 1 1.6333 -99 1 0 0.1 0
2 0 0 8 3 1 399 31 2 1 2.0165 -99 3 0 0.1 1
2 0 0 8 3 1 400 32 1 1 1.3333 -99 2 0 0.05 0
2 0 0 8 3 1 401 33 1 1 2.0499 -99 3 0 0.4 0
2 0 0 8 3 1 402 34 1 1 1.8666 -99 3 0 0.2 0
2 0 0 8 3 1 403 35 1 1 1.3832 -99 3 0 0.4 1
2 0 0 8 3 0 404 36 -1 -1 -1 -1 -1 0 0 1
2 0 0 8 3 1 405 37 2 1 2.9832 -99 2 0 0.05 0
2 0 0 8 3 1 406 38 2 1 1.0832 -99 3 0 0.2 1
2 0 0 8 3 1 407 39 2 1 1.3832 -99 2 0 0.05 0
2 0 0 8 3 1 408 40 2 1 1.1332 -99 3 0 0.05 0
2 0 0 8 3 1 409 41 2 1 0.78326 -99 3 0 0.1 1
2 0 0 8 3 1 410 42 1 1 0.99988 -99 2 0 0.1 0
2 0 0 8 3 1 411 43 1 1 0.89992 -99 3 0 0.4 0
2 0 0 8 3 1 412 44 1 0 1.3499 -99 2 0 0 0
2 0 0 8 3 1 413 45 1 1 1.4832 -99 1 0 0.05 0
2 0 0 8 3 1 414 46 1 0 0.93323 -99 1 0 0 0
2 0 0 8 3 1 415 47 2 1 1.0666 -99 3 0 0.4 0
2 0 0 8 3 1 416 48 1 1 0.78328 -99 3 0 0.4 1
2 0 0 8 3 1 417 49 2 1 1.0833 -99 3 0 0.05 1
2 0 0 8 3 1 418 50 2 1 0.73326 -99 3 0 0.4 1
2 0 0 8 3 1 419 51 2 1 1.1999 -99 3 0 0.1 0
2 0 0 8 3 1 420 52 1 1 1.7666 -99 2 0 0.1 1
2 0 0 8 3 1 421 53 2 1 0.83324 -99 2 0 0.2 0
2 0 0 8 3 1 422 54 1 1 0.71658 -99 2 0 0.05 1
2 0 0 8 3 1 423 55 2 1 1.2166 -99 2 0 0.1 0
2 0 0 8 3 1 424 56 1 1 2.3166 -99 1 0 0 0
2 0 0 8 3 1 425 57 2 1 1.4166 -99 2 0 0 0
2 0 0 8 3 1 426 58 2 1 0.99989 -99 2 0 0.2 0
2 0 0 8 3 1 427 59 1 1 1.3332 -99 2 0 0.4 1
2 0 0 8 3 1 428 60 2 1 0.99988 -99 3 0 0.2 0
2 0 0 9 3 1 429 1 1 1 1.3499 -99 2 0 0.1 0
2 0 0 9 3 1 430 2 1 1 0.91658 -99 2 0 0.1 0
2 0 0 9 3 1 431 3 2 1 0.74996 -99 2 0 0.1 1
2 0 0 9 3 1 432 4 2 1 0.93324 -99 2 0 0.1 1
2 0 0 9 3 1 433 5 1 1 0.63319 -99 2 0 0.2 1
2 0 0 9 3 1 434 6 1 1 0.68326 -99 3 0 0.4 1
2 0 0 9 3 1 435 7 2 1 1.0166 -99 2 0 0.1 1
2 0 0 9 3 1 436 8 2 0 1.7832 -99 1 0 0.1 1
2 0 0 9 3 1 437 9 2 1 0.99993 -99 3 0 0.4 0
2 0 0 9 3 1 438 10 2 1 2.0332 -99 2 0 0.1 0
2 0 0 9 3 1 439 11 1 1 1.0503 -99 3 0 0.4 0
2 0 0 9 3 1 440 12 1 1 1.5332 -99 1 0 0.1 0
2 0 0 9 3 1 441 13 2 1 0.83366 -99 3 0 0.4 0
2 0 0 9 3 1 442 14 2 1 0.9333 -99 3 0 0.4 1
2 0 0 9 3 1 443 15 1 1 0.79991 -99 3 0 0.4 1
2 0 0 9 3 1 444 16 1 1 2.0666 -99 1 0 0.05 0
2 0 0 9 3 1 445 17 2 1 1.1837 -99 1 0 0 1
2 0 0 9 3 1 446 18 2 0 1.8833 -99 1 0 0.05 0
2 0 0 9 3 1 447 19 2 0 1.1337 -99 1 0 0.05 1
2 0 0 9 3 1 448 20 2 1 0.79989 -99 1 0 0.2 0
2 0 0 9 3 1 449 21 1 1 0.98326 -99 1 0 0 0
2 0 0 9 3 1 450 22 2 1 0.63326 -99 1 0 0.2 1
2 0 0 9 3 1 451 23 1 1 1.0832 -99 2 0 0.4 1
2 0 0 9 3 1 452 24 1 0 2.3999 -99 1 0 0 0
2 0 0 9 3 1 453 25 2 1 0.99997 -99 2 0 0.05 1
2 0 0 9 3 1 454 26 1 1 0.88324 -99 3 0 0.4 0
2 0 0 9 3 1 455 27 1 1 0.99989 -99 2 0 0.05 1
2 0 0 9 3 1 456 28 1 0 1.3832 -99 1 0 0 1
2 0 0 9 3 1 457 29 2 0 0.99987 -99 1 0 0 1
2 0 0 9 3 1 458 30 2 0 0.9332 -99 1 0 0 1
2 0 0 9 3 1 459 31 2 1 0.99986 -99 1 0 0.1 0
2 0 0 9 3 1 460 32 1 1 1.3332 -99 1 0 0 0
2 0 0 9 3 1 461 33 1 1 0.81699 -99 1 0 0.2 0
2 0 0 9 3 1 462 34 1 0 0.73317 -99 1 0 0 0
2 0 0 9 3 1 463 35 2 0 0.86654 -99 1 0 0.1 1
2 0 0 9 3 1 464 36 1 1 1.0999 -99 1 0 0.2 1
2 0 0 9 3 1 465 37 2 1 0.6165 -99 1 0 0.4 1
2 0 0 9 3 1 466 38 2 1 1.1166 -99 1 0 0.1 0
2 0 0 9 3 1 467 39 2 1 0.64991 -99 1 0 0.05 1
2 0 0 9 3 1 468 40 1 0 2.1832 -99 1 0 0.05 0
2 0 0 9 3 1 469 41 1 0 1.3336 -99 1 0 0 0
2 0 0 9 3 1 470 42 2 1 1.0503 -99 3 0 0.4 0
2 0 0 9 3 1 471 43 2 1 1.6003 -99 1 0 0.05 0
2 0 0 9 3 1 472 44 1 1 1.7499 -99 1 0 0 0
2 0 0 9 3 1 473 45 1 1 0.88324 -99 1 0 0.05 0
2 0 0 9 3 1 474 46 2 0 1.2999 -99 1 0 0.2 0
2 0 0 9 3 1 475 47 2 1 0.98319 -99 3 0 0.4 1
2 0 0 9 3 1 476 48 2 1 1.0666 -99 1 0 0.05 0
2 0 0 9 3 1 477 49 1 1 1.0999 -99 2 0 0.4 0
2 0 0 9 3 1 478 50 2 0 1.3832 -99 1 0 0 1
2 0 0 9 3 1 479 51 2 1 0.93323 -99 2 0 0.2 0
2 0 0 9 3 1 480 52 2 0 1.3665 -99 1 0 0.2 0
2 0 0 9 3 1 481 53 2 1 0.99989 -99 2 0 0 1
2 0 0 9 3 1 482 54 1 1 1.3332 -99 2 0 0.2 1
2 0 0 9 3 1 483 55 1 1 0.99989 -99 2 0 0.1 1
2 0 0 9 3 1 484 56 2 1 1.0166 -99 2 0 0.2 0
2 0 0 9 3 1 485 57 2 1 0.91657 -99 3 0 0.05 1
2 0 0 9 3 1 486 58 2 0 0.73368 -99 3 0 0.05 1
2 0 0 9 3 1 487 59 2 1 0.58328 -99 3 0 0.2 1
2 0 0 9 3 1 488 60 2 1 0.46661 -99 3 0 0.2 1
2 0 0 10 3 1 489 1 1 1 0.98326 -99 3 0 0.4 0
2 0 0 10 3 1 490 2 2 1 0.96658 -99 3 0 0.1 0
2 0 0 10 3 1 491 3 1 0 0.76656 -99 3 0 0 0
2 0 0 10 3 1 492 4 2 1 0.86652 -99 3 0 0.2 1
2 0 0 10 3 1 493 5 2 1 0.56654 -99 3 0 0.2 1
2 0 0 10 3 1 494 6 2 1 0.53324 -99 3 0 0.2 1
2 0 0 10 3 1 495 7 1 0 1.8999 -99 1 0 0.1 0
2 0 0 10 3 1 496 8 2 1 1.0166 -99 2 0 0.2 0
2 0 0 10 3 1 497 9 2 0 1.0999 -99 2 0 0 1
2 0 0 10 3 1 498 10 1 1 0.91662 -99 2 0 0.1 0
2 0 0 10 3 1 499 11 2 1 0.91659 -99 3 0 0.4 1
2 0 0 10 3 1 500 12 1 1 1.3666 -99 1 0 0.05 1
2 0 0 10 3 1 501 13 2 1 1.5166 -99 1 0 0.1 0
2 0 0 10 3 1 502 14 1 1 0.86657 -99 1 0 0 0
2 0 0 10 3 1 503 15 1 1 1.5499 -99 1 0 0.4 1
2 0 0 10 3 1 504 16 1 1 1.2999 -99 1 0 0.1 0
2 0 0 10 3 1 505 17 1 1 2.0999 -99 1 0 0 1
2 0 0 10 3 1 506 18 2 1 2.0165 -99 1 0 0.1 1
2 0 0 10 3 1 507 19 1 1 1.3999 -99 3 0 0.4 0
2 0 0 10 3 1 508 20 1 0 1.6999 -99 1 0 0.05 1
2 0 0 10 3 1 509 21 1 1 0.99986 -99 3 0 0.4 1
2 0 0 10 3 1 510 22 2 1 0.83321 -99 1 0 0.05 1
2 0 0 10 3 1 511 23 2 0 0.81656 -99 1 0 0.1 1
2 0 0 10 3 1 512 24 1 1 1.1499 -99 1 0 0.2 1
2 0 0 10 3 1 513 25 1 1 0.98321 -99 3 0 0.4 1
2 0 0 10 3 1 514 26 1 1 0.58326 -99 3 0 0.4 0
2 0 0 10 3 1 515 27 1 1 0.7666 -99 3 0 0.1 1
2 0 0 10 3 1 516 28 1 1 1.3666 -99 1 0 0 0
2 0 0 10 3 1 517 29 2 1 0.98282 -99 1 0 0.05 1
2 0 0 10 3 1 518 30 1 1 1.2999 -99 1 0 0.2 1
2 0 0 10 3 1 519 31 2 1 0.76657 -99 1 0 0.2 0
2 0 0 10 3 1 520 32 2 1 0.69992 -99 1 0 0.05 0
2 0 0 10 3 1 521 33 1 1 0.71658 -99 1 0 0.2 0
2 0 0 10 3 1 522 34 1 0 0.93326 -99 1 0 0 1
2 0 0 10 3 1 523 35 1 0 0.84992 -99 1 0 0 1
2 0 0 10 3 1 524 36 1 1 0.68324 -99 1 0 0.2 0
2 0 0 10 3 1 525 37 2 1 1.0166 -99 2 0 0.1 1
2 0 0 10 3 1 526 38 1 1 0.94987 -99 1 0 0.2 0
2 0 0 10 3 1 527 39 1 1 0.56656 -99 1 0 0 0
2 0 0 10 3 1 528 40 2 1 0.49991 -99 1 0 0.4 0
2 0 0 10 3 1 529 41 2 0 1.6999 -99 1 0 0.05 0
2 0 0 10 3 1 530 42 2 1 0.71654 -99 1 0 0.2 0
2 0 0 10 3 1 531 43 2 1 0.76652 -99 2 0 0.4 0
2 0 0 10 3 1 532 44 2 1 1.6666 -99 1 0 0 0
2 0 0 10 3 1 533 45 2 1 0.78323 -99 1 0 0.05 0
2 0 0 10 3 1 534 46 2 0 1.1166 -99 1 0 0.05 0
2 0 0 10 3 1 535 47 2 1 1.4499 -99 3 0 0.4 0
2 0 0 10 3 1 536 48 2 1 0.64988 -99 3 0 0.4 1
2 0 0 10 3 1 537 49 2 0 1.5999 -99 2 0 0.1 1
2 0 0 10 3 1 538 50 2 1 0.66652 -99 3 0 0.4 1
2 0 0 10 3 1 539 51 2 0 1.2166 -99 2 0 0.05 1
2 0 0 10 3 1 540 52 2 0 0.73328 -99 2 0 0.05 1
2 0 0 10 3 1 541 53 2 0 0.9999 -99 2 0 0 1
2 0 0 10 3 1 542 54 1 0 1.2666 -99 1 0 0 0
2 0 0 10 3 1 543 55 1 1 0.78318 -99 1 0 0.2 1
2 0 0 10 3 1 544 56 1 0 0.64989 -99 1 0 0 1
2 0 0 10 3 1 545 57 2 1 1.2665 -99 2 0 0.1 1
2 0 0 10 3 1 546 58 2 0 1.5503 -99 1 0 0.1 0
2 0 0 10 3 1 547 59 1 0 2.5666 -99 1 0 0.05 0
2 0 0 10 3 1 548 60 1 1 1.0499 -99 1 0 0.05 0
2 0 0 11 2 0 549 1 2 1 2.1666 -99 -99 1 0.4 0
2 0 0 11 2 0 550 2 2 1 1.0999 -99 -99 1 0.4 0
2 0 0 11 2 0 551 3 2 1 0.88326 -99 -99 1 0.4 0
2 0 0 11 2 0 552 4 1 1 0.83322 -99 -99 1 0.4 0
2 0 0 11 2 0 553 5 2 1 0.59992 -99 -99 1 0.4 0
2 0 0 11 2 0 554 6 1 1 0.5666 -99 -99 1 0.4 0
2 0 0 11 2 0 555 7 1 1 0.56659 -99 -99 1 0.4 0
2 0 0 11 2 0 556 8 1 1 0.58324 -99 -99 1 0.4 0
2 0 0 12 3 1 557 1 1 1 2.9832 39.846 4 1 0.4 1
2 0 0 12 3 1 558 2 2 1 1.6999 1.2522 6 1 0.4 1
2 0 0 12 3 1 559 3 2 1 0.78327 1.2215 4 1 0.2 1
2 0 0 12 3 1 560 4 2 1 0.59994 6.5118 4 1 0.2 0
2 0 0 12 3 1 561 5 1 1 1.3333 3.7449 4 1 0.4 0
2 0 0 12 3 1 562 6 2 1 0.88326 1.4877 6 1 0.4 0
2 0 0 12 3 1 563 7 1 1 1.15 1.062 4 1 0.05 0
2 0 0 12 3 1 564 8 2 0 1.1999 1.5183 1 1 0.2 1
2 0 0 12 3 1 565 9 1 1 1.3666 0.74979 6 1 0.4 1
2 0 0 12 3 1 566 10 2 1 2.8999 0.54246 4 1 0 1
2 0 0 12 3 1 567 11 2 0 0.78326 0.45239 4 1 0 1
2 0 0 12 3 1 568 12 2 1 1.2833 0.32916 6 1 0.4 1
2 0 0 12 3 1 569 13 1 0 0.98322 0.38388 4 1 0 1
2 0 0 12 3 1 570 14 1 0 0.83327 1.1132 4 1 0 0
2 0 0 12 3 1 571 15 1 0 0.76659 0.90524 4 1 0 0
2 0 0 12 3 1 572 16 1 1 0.88327 0.99652 5 1 0.1 0
2 0 0 12 3 1 573 17 1 1 1.3166 0.027211 5 1 0 0
2 0 0 12 3 1 574 18 1 1 0.83325 1.0921 5 1 0.05 1
2 0 0 12 3 1 575 19 2 1 0.74994 0.00017095 5 1 0.05 1
2 0 0 12 3 1 576 20 1 1 0.99996 0.36801 6 1 0.2 0
2 0 0 12 3 1 577 21 1 1 0.8666 0.4334 6 1 0.2 1
2 0 0 12 3 1 578 22 2 0 0.81657 0.63965 6 1 0.1 1
2 0 0 12 3 1 579 23 1 1 0.7666 0.57005 5 1 0.1 0
2 0 0 12 3 1 580 24 2 1 0.9166 0.00016775 6 1 0.4 0
2 0 0 12 3 1 581 25 1 0 0.83331 1.2947 4 1 0.1 1
2 0 0 12 3 1 582 26 2 1 0.93327 0.60878 5 1 0.1 0
2 0 0 12 3 1 583 27 2 1 0.88324 2.0401 4 1 0.2 0
2 0 0 12 3 1 584 28 2 0 2.7832 0.89013 4 1 0.05 1
2 0 0 12 3 1 585 29 2 1 0.83325 0.69618 4 1 0.05 0
2 0 0 12 3 1 586 30 1 1 0.84992 0.00016871 3 1 0.1 0
2 0 0 12 3 1 587 31 1 1 1.0832 4.7482 4 1 0 0
2 0 0 12 3 1 588 32 1 1 1.3833 1.2818 5 1 0.2 0
2 0 0 12 3 1 589 33 2 1 0.88328 0.33363 5 1 0.1 0
2 0 0 12 3 1 590 34 2 1 1.1166 0.29431 6 1 0.4 1
2 0 0 12 3 1 591 35 2 1 0.73324 1.1681 6 1 0.4 0
2 0 0 12 3 1 592 36 1 1 0.99989 0.42 6 1 0.4 0
2 0 0 12 3 1 593 37 2 1 0.94992 0.80015 6 1 0.05 1
2 0 0 12 3 1 594 38 2 1 0.73326 0.46039 6 1 0 1
2 0 0 12 3 1 595 39 2 1 0.79992 0.49306 6 1 0.2 1
2 0 0 12 3 1 596 40 2 1 0.74994 5.6628 5 1 0.05 0
2 0 0 12 3 1 597 41 2 0 1.3814 0.88776 4 1 0.05 0
2 0 0 12 3 0 598 42 -1 -1 -1 -1 -1 1 0.4 1
2 0 0 12 3 1 599 43 2 0 1.1333 0.70378 6 1 0 1
2 0 0 12 3 1 600 44 1 0 0.83326 0.63664 4 1 0 0
2 0 0 12 3 1 601 45 1 1 0.9666 0.73467 5 1 0.2 1
2 0 0 12 3 1 602 46 2 0 1.2164 0.53936 5 1 0 1
2 0 0 12 3 1 603 47 2 1 0.98328 0.53731 5 1 0.1 1
2 0 0 12 3 1 604 48 1 1 0.93327 0.76162 6 1 0.4 0
2 0 0 12 3 1 605 49 1 1 1.4332 0.68468 5 1 0.05 1
2 0 0 12 3 1 606 50 1 1 0.89989 0.33614 5 1 0.05 0
2 0 0 12 3 1 607 51 1 1 0.68327 0.37018 5 1 0.2 0
2 0 0 12 3 1 608 52 2 1 0.76659 0.054845 4 1 0.05 1
2 0 0 12 3 1 609 53 1 1 0.68328 0.05209 4 1 0 0
2 0 0 12 3 1 610 54 2 1 0.8333 0.81946 4 1 0.1 1
2 0 0 12 3 1 611 55 2 1 1.7333 0.30425 4 1 0.05 0
2 0 0 12 3 1 612 56 2 0 1.6666 0.3322 4 1 0.1 1
2 0 0 12 3 1 613 57 2 1 0.74994 0.25888 4 1 0.1 0
2 0 0 12 3 1 614 58 2 1 1.0666 0.337 6 1 0.2 0
2 0 0 12 3 1 615 59 1 1 0.68326 1.923 4 1 0.1 1
2 0 0 12 3 1 616 60 2 1 0.68327 0.10166 4 1 0.2 1
2 0 0 13 3 1 617 1 1 1 0.83325 0.70902 4 1 0.1 1
2 0 0 13 3 1 618 2 2 1 1.0999 0.31171 5 1 0 1
2 0 0 13 3 1 619 3 2 1 0.66662 0.33172 6 1 0.4 0
2 0 0 13 3 1 620 4 1 1 0.5499 0.25907 5 1 0.2 1
2 0 0 13 3 1 621 5 1 1 0.56659 2.3331 5 1 0.4 0
2 0 0 13 3 1 622 6 2 1 1.767 1.6203 5 1 0.1 0
2 0 0 13 3 1 623 7 1 1 1.3499 1.5042 5 1 0.2 1
2 0 0 13 3 1 624 8 1 1 1.0333 0.35728 6 1 0.4 1
2 0 0 13 3 1 625 9 2 0 2.1665 0.8672 1 1 0.2 0
2 0 0 13 3 1 626 10 1 1 1.0333 0.31792 6 1 0.4 0
2 0 0 13 3 1 627 11 2 1 0.7666 0.31729 5 1 0.1 1
2 0 0 13 3 1 628 12 2 1 0.93323 0.11798 6 1 0.2 1
2 0 0 13 3 1 629 13 1 0 2.167 0.27735 4 1 0.05 1
2 0 0 13 3 1 630 14 1 1 1.0499 1.0034 4 1 0.1 1
2 0 0 13 3 1 631 15 2 0 0.66655 0.3233 4 1 0.1 1
2 0 0 13 3 1 632 16 2 1 0.59991 0.50535 5 1 0.2 1
2 0 0 13 3 1 633 17 1 1 0.9499 0.2741 5 1 0.1 0
2 0 0 13 3 1 634 18 2 1 0.68328 0.37471 5 1 0.1 1
2 0 0 13 3 1 635 19 1 1 0.63317 0.29786 5 1 0.1 0
2 0 0 13 3 1 636 20 1 1 0.61657 0.21562 5 1 0.2 0
2 0 0 13 3 1 637 21 2 0 1.0499 0.31953 5 1 0.05 1
2 0 0 13 3 1 638 22 1 0 0.89993 0.14571 5 1 0 0
2 0 0 13 3 1 639 23 1 1 0.68327 0.37949 6 1 0.4 1
2 0 0 13 3 1 640 24 1 1 0.79991 0.28758 5 1 0 0
2 0 0 13 3 1 641 25 2 1 1.0832 0.595 5 1 0.05 1
2 0 0 13 3 1 642 26 1 0 0.61661 0.26207 4 1 0 0
2 0 0 13 3 1 643 27 1 1 0.98324 0.67126 6 1 0.2 1
2 0 0 13 3 1 644 28 2 1 1.2333 0.0002104 6 1 0.2 0
2 0 0 13 3 1 645 29 2 1 1.2165 0.37601 5 1 0.1 1
2 0 0 13 3 1 646 30 2 1 1.1999 0.2917 6 1 0.4 1
2 0 0 13 3 1 647 31 2 1 0.68366 0.00017095 6 1 0.2 1
2 0 0 13 3 1 648 32 1 0 0.76705 0.043654 4 1 0 0
2 0 0 13 3 1 649 33 1 1 0.73366 0.43221 4 1 0 0
2 0 0 13 3 1 650 34 2 0 0.88366 0.32582 4 1 0.05 0
2 0 0 13 3 1 651 35 1 1 1.2165 0.37115 4 1 0 0
2 0 0 13 3 1 652 36 1 1 0.73366 0.33779 4 1 0 1
2 0 0 13 3 1 653 37 2 1 0.93328 0.37777 5 1 0.2 0
2 0 0 13 3 1 654 38 2 1 0.76696 0.3832 6 1 0.4 1
2 0 0 13 3 1 655 39 2 0 0.93366 0.30921 5 1 0.05 0
2 0 0 13 3 1 656 40 2 1 0.78315 0.44493 5 1 0 1
2 0 0 13 3 1 657 41 2 1 0.53325 0.2806 5 1 0.1 0
2 0 0 13 3 1 658 42 1 1 0.91703 0.30016 6 1 0.4 1
2 0 0 13 3 1 659 43 2 0 0.93326 0.34795 6 1 0.05 1
2 0 0 13 3 1 660 44 1 1 0.84992 0.12664 6 1 0.1 0
2 0 0 13 3 1 661 45 1 1 1.0503 0.27495 6 1 0.2 0
2 0 0 13 3 1 662 46 1 0 0.89993 0.25401 6 1 0 1
2 0 0 13 3 1 663 47 1 0 0.64991 7.6206 4 1 0.05 0
2 0 0 13 3 1 664 48 2 1 1.2499 0.65207 5 1 0.05 1
2 0 0 13 3 1 665 49 2 1 1.7165 0.26344 4 1 0.05 0
2 0 0 13 3 1 666 50 2 1 0.96699 0.27344 6 1 0.4 1
2 0 0 13 3 1 667 51 2 1 1.2 0.4575 6 1 0.4 0
2 0 0 13 3 1 668 52 2 1 1.3837 0.28281 4 1 0.1 0
2 0 0 13 3 1 669 53 2 1 1.4003 0.33819 5 1 0.2 0
2 0 0 13 3 1 670 54 1 1 1.0998 0.3309 4 1 0.05 0
2 0 0 13 3 1 671 55 2 0 0.95035 0.2992 4 1 0 1
2 0 0 13 3 1 672 56 1 1 0.84989 0.2876 4 1 0.05 1
2 0 0 13 3 1 673 57 2 1 0.8666 0.39556 6 1 0.4 0
2 0 0 13 3 1 674 58 2 0 0.88326 0.13098 5 1 0 1
2 0 0 13 3 1 675 59 1 1 0.93328 2.2277 6 1 0.4 0
2 0 0 13 3 1 676 60 2 1 0.98327 0.29412 5 1 0.05 0
2 0 0 14 3 1 677 1 2 1 1.1832 0.27048 6 1 0.4 1
2 0 0 14 3 1 678 2 1 1 0.93322 0.26443 6 1 0.2 0
2 0 0 14 3 1 679 3 1 0 1.7166 0.26782 4 1 0 0
2 0 0 14 3 1 680 4 1 1 0.96658 0.28446 6 1 0.4 0
2 0 0 14 3 1 681 5 2 1 1.1499 0.25311 5 1 0 1
2 0 0 14 3 1 682 6 2 1 1.2166 0.28451 4 1 0.1 0
2 0 0 14 3 1 683 7 2 1 0.96658 1.3966 4 1 0.1 0
2 0 0 14 3 1 684 8 2 0 1.0666 0.4766 5 1 0 1
2 0 0 14 3 1 685 9 2 0 1.3166 0.32756 4 1 0 1
2 0 0 14 3 1 686 10 2 1 0.93327 0.39127 4 1 0 1
2 0 0 14 3 1 687 11 2 1 1.1666 0.25159 6 1 0.4 0
2 0 0 14 3 1 688 12 2 0 0.9166 0.28693 5 1 0 1
2 0 0 14 3 1 689 13 1 0 1.7666 0.26269 4 1 0.05 0
2 0 0 14 3 1 690 14 1 1 1.0165 0.54236 4 1 0.1 1
2 0 0 14 3 1 691 15 2 0 0.79993 0.38711 3 1 0 0
2 0 0 14 3 1 692 16 2 1 0.96664 0.47079 6 1 0.4 0
2 0 0 14 3 1 693 17 2 1 1.2666 0.35545 5 1 0.2 1
2 0 0 14 3 1 694 18 2 0 0.7332 0.29015 5 1 0.1 1
2 0 0 14 3 1 695 19 1 1 0.71659 0.22033 5 1 0.05 1
2 0 0 14 3 1 696 20 1 1 1.3666 0.00017224 5 1 0.05 1
2 0 0 14 3 1 697 21 1 1 0.53367 0.34825 5 1 0.4 1
2 0 0 14 3 1 698 22 1 1 0.61657 0.61549 5 1 0.1 0
2 0 0 14 3 1 699 23 1 1 0.61655 0.016369 5 1 0.2 0
2 0 0 14 3 1 700 24 2 1 1.3166 0.47701 4 1 0.1 1
2 0 0 14 3 1 701 25 1 1 0.59997 0.23624 4 1 0.2 1
2 0 0 14 3 1 702 26 1 1 0.89993 0.48099 6 1 0.1 1
2 0 0 14 3 1 703 27 2 1 1.0333 0.094978 6 1 0.2 1
2 0 0 14 3 1 704 28 2 0 0.83323 0.00017224 6 1 0 0
2 0 0 14 3 1 705 29 1 0 1.0666 0.10761 4 1 0.05 1
2 0 0 14 3 1 706 30 1 1 0.83323 0.27243 4 1 0 0
2 0 0 14 3 1 707 31 1 1 0.93325 0.35434 6 1 0.4 1
2 0 0 14 3 1 708 32 2 1 1.0666 0.3317 4 1 0.1 0
2 0 0 14 3 1 709 33 1 0 1.1666 0.28173 4 1 0.1 1
2 0 0 14 3 1 710 34 2 1 1.0666 0.4061 4 1 0.2 0
2 0 0 14 3 1 711 35 2 1 0.98325 0.32047 6 1 0.4 1
2 0 0 14 3 1 712 36 2 1 1.0499 0.3082 5 1 0.05 0
2 0 0 14 3 1 713 37 2 0 0.74997 0.29185 4 1 0.05 0
2 0 0 14 3 1 714 38 2 1 0.89993 0.20646 5 1 0.2 0
2 0 0 14 3 1 715 39 2 0 0.66661 0.23788 4 1 0.05 1
2 0 0 14 3 1 716 40 1 1 0.94993 0.76885 5 1 0.1 0
2 0 0 14 3 1 717 41 2 1 0.7666 0.26121 4 1 0.05 0
2 0 0 14 3 1 718 42 2 1 0.8166 0.34862 6 1 0.4 0
2 0 0 14 3 0 719 43 -1 -1 -1 -1 -1 1 0.05 1
2 0 0 14 3 1 720 44 1 1 1.0999 0.21329 5 1 0.2 1
2 0 0 14 3 1 721 45 1 1 0.98325 0.27199 6 1 0.4 1
2 0 0 14 3 1 722 46 1 1 0.59991 0.59932 5 1 0.1 0
2 0 0 14 3 1 723 47 1 1 0.59992 0.28934 5 1 0.05 0
2 0 0 14 3 1 724 48 1 0 0.4832 0.50076 4 1 0 0
2 0 0 14 3 1 725 49 2 1 0.88327 0.24741 5 1 0.2 0
2 0 0 14 3 1 726 50 1 0 0.96658 0.23346 5 1 0 1
2 0 0 14 3 1 727 51 1 1 0.83326 0.2888 6 1 0.2 1
2 0 0 14 3 1 728 52 2 1 0.81661 0.59868 6 1 0.2 1
2 0 0 14 3 1 729 53 2 1 0.9166 0.36456 6 1 0.4 1
2 0 0 14 3 1 730 54 1 1 1.6499 0.36621 5 1 0.05 0
2 0 0 14 3 1 731 55 1 1 0.83327 0.34425 6 1 0.2 0
2 0 0 14 3 1 732 56 2 1 0.8166 0.22863 5 1 0.1 1
2 0 0 14 3 1 733 57 1 1 0.81659 0.30087 6 1 0.4 0
2 0 0 14 3 1 734 58 1 1 0.71658 0.50236 6 1 0.4 0
2 0 0 14 3 1 735 59 2 1 0.98325 0.23702 5 1 0.05 1
2 0 0 14 3 1 736 60 1 0 0.98324 1.0302 4 1 0 0
3 0 0 1 1 0 1 1 -1 -1 -1 -1 -1 0 0.2 0
3 0 0 1 1 0 2 2 -1 -1 -1 -1 -1 0 0.2 0
3 0 0 1 1 0 3 3 2 0 1.7665 -99 -99 0 0.4 0
3 0 0 1 1 0 4 4 1 1 2.5831 -99 -99 0 0.4 0
3 0 0 1 1 0 5 5 2 1 1.1998 -99 -99 0 0.4 0
3 0 0 1 1 0 6 6 1 1 0.9331 -99 -99 0 0.4 0
3 0 0 1 1 0 7 7 1 1 0.81657 -99 -99 0 0.4 0
3 0 0 1 1 0 8 8 2 1 0.69989 -99 -99 0 0.2 0
3 0 0 1 1 0 9 9 2 1 2.1165 -99 -99 0 0.2 0
3 0 0 1 1 0 10 10 1 1 1.1499 -99 -99 0 0.2 0
3 0 0 1 1 0 11 11 2 1 0.89988 -99 -99 0 0.4 0
3 0 0 1 1 0 12 12 2 1 0.8665 -99 -99 0 0.2 0
3 0 0 1 1 0 13 13 1 1 0.73322 -99 -99 0 0.2 0
3 0 0 1 1 0 14 14 2 1 0.56652 -99 -99 0 0.4 0
3 0 0 1 1 0 15 15 1 1 0.88317 -99 -99 0 0.4 0
3 0 0 1 1 0 16 16 2 1 0.64988 -99 -99 0 0.2 0
3 0 0 1 1 0 17 17 2 1 0.56649 -99 -99 0 0.4 0
3 0 0 1 1 0 18 18 1 1 0.7499 -99 -99 0 0.2 0
3 0 0 1 1 0 19 19 2 1 0.63321 -99 -99 0 0.2 0
3 0 0 1 1 0 20 20 2 1 0.51647 -99 -99 0 0.4 0
3 0 0 1 1 0 21 21 2 1 0.56651 -99 -99 0 0.2 0
3 0 0 1 1 0 22 22 1 1 0.51652 -99 -99 0 0.4 0
3 0 0 1 1 0 23 23 1 1 0.54988 -99 -99 0 0.2 0
3 0 0 1 1 0 24 24 1 1 0.61655 -99 -99 0 0.2 0
3 0 0 1 1 0 25 25 1 1 0.56653 -99 -99 0 0.4 0
3 0 0 1 1 0 26 26 2 1 0.49985 -99 -99 0 0.4 0
3 0 0 1 1 0 27 27 2 1 0.68322 -99 -99 0 0.2 0
3 0 0 1 1 0 28 28 1 1 0.48326 -99 -99 0 0.4 0
3 0 0 1 1 0 29 29 2 1 0.51656 -99 -99 0 0.2 0
3 0 0 1 1 0 30 30 1 1 0.48316 -99 -99 0 0.2 0
3 0 0 1 1 0 31 31 1 1 0.69985 -99 -99 0 0.2 0
3 0 0 1 1 0 32 32 2 1 0.59988 -99 -99 0 0.2 0
3 0 0 1 1 0 33 33 2 1 0.6665 -99 -99 0 0.4 0
3 0 0 1 1 0 34 34 1 0 1.5665 -99 -99 0 0.2 0
3 0 0 1 1 0 35 35 1 1 0.63319 -99 -99 0 0.4 0
3 0 0 1 1 0 36 36 2 1 0.51652 -99 -99 0 0.4 0
3 0 0 1 1 0 37 37 1 1 0.58317 -99 -99 0 0.4 0
3 0 0 1 1 0 38 38 1 1 0.5999 -99 -99 0 0.4 0
3 0 0 1 1 0 39 39 2 1 0.79983 -99 -99 0 0.2 0
3 0 0 1 1 0 40 40 1 1 0.66656 -99 -99 0 0.4 0
3 0 0 1 1 0 41 41 1 1 0.56652 -99 -99 0 0.4 0
3 0 0 1 1 0 42 42 2 1 0.56654 -99 -99 0 0.4 0
3 0 0 1 1 0 43 43 1 1 0.5332 -99 -99 0 0.2 0
3 0 0 1 1 0 44 44 2 1 0.53321 -99 -99 0 0.4 0
3 0 0 1 1 0 45 45 2 1 0.66657 -99 -99 0 0.2 0
3 0 0 1 1 0 46 46 2 1 0.54987 -99 -99 0 0.4 0
3 0 0 1 1 0 47 47 1 1 0.51653 -99 -99 0 0.2 0
3 0 0 1 1 0 48 48 1 1 0.44985 -99 -99 0 0.2 0
3 0 0 1 1 0 49 49 2 1 0.44989 -99 -99 0 0.2 0
3 0 0 1 1 0 50 50 2 1 0.43325 -99 -99 0 0.4 0
3 0 0 1 1 0 51 51 2 1 0.41657 -99 -99 0 0.4 0
3 0 0 1 1 0 52 52 2 1 0.43319 -99 -99 0 0.2 0
3 0 0 1 1 0 53 53 1 1 0.44988 -99 -99 0 0.2 0
3 0 0 1 1 0 54 54 2 1 0.49986 -99 -99 0 0.4 0
3 0 0 1 1 0 55 55 2 1 0.44987 -99 -99 0 0.4 0
3 0 0 1 1 0 56 56 1 1 0.46655 -99 -99 0 0.2 0
3 0 0 1 1 0 57 57 1 1 0.3999 -99 -99 0 0.4 0
3 0 0 1 1 0 58 58 1 1 0.43323 -99 -99 0 0.2 0
3 0 0 1 1 0 59 59 1 1 0.41655 -99 -99 0 0.4 0
3 0 0 1 1 0 60 60 1 1 0.43317 -99 -99 0 0.2 0
3 0 0 2 2 0 61 1 1 1 1.0665 -99 -99 0 0.2 0
3 0 0 2 2 0 62 2 2 1 0.96655 -99 -99 0 0.4 1
3 0 0 2 2 0 63 3 2 1 0.66651 -99 -99 0 0.2 0
3 0 0 2 2 0 64 4 1 0 1.6998 -99 -99 0 0.1 0
3 0 0 2 2 0 65 5 2 0 2.0165 -99 -99 0 0 1
3 0 0 2 2 0 66 6 1 1 2.8665 -99 -99 0 0.1 1
3 0 0 2 2 0 67 7 1 1 0.89989 -99 -99 0 0 1
3 0 0 2 2 0 68 8 1 0 0.71655 -99 -99 0 0 1
3 0 0 2 2 0 69 9 -1 -1 -1 -1 -1 0 0 0
3 0 0 2 2 0 70 10 1 0 1.0665 -99 -99 0 0 1
3 0 0 2 2 0 71 11 2 0 1.3331 -99 -99 0 0.2 1
3 0 0 2 2 0 72 12 2 1 2.8331 -99 -99 0 0.05 1
3 0 0 2 2 0 73 13 1 1 1.8831 -99 -99 0 0.1 0
3 0 0 2 2 0 74 14 1 1 0.78322 -99 -99 0 0.4 1
3 0 0 2 2 0 75 15 1 1 1.3165 -99 -99 0 0.05 1
3 0 0 2 2 0 76 16 1 1 1.9831 -99 -99 0 0.05 0
3 0 0 2 2 0 77 17 2 1 2.5831 -99 -99 0 0 0
3 0 0 2 2 0 78 18 2 1 1.0665 -99 -99 0 0.1 1
3 0 0 2 2 0 79 19 2 1 2.2998 -99 -99 0 0 0
3 0 0 2 2 0 80 20 2 1 1.5165 -99 -99 0 0.05 0
3 0 0 2 2 0 81 21 2 1 2.433 -99 -99 0 0.1 0
3 0 0 2 2 0 82 22 1 1 0.61657 -99 -99 0 0.4 0
3 0 0 2 2 0 83 23 1 1 1.8332 -99 -99 0 0.2 1
3 0 0 2 2 0 84 24 2 1 0.78317 -99 -99 0 0.4 0
3 0 0 2 2 0 85 25 2 0 2.6497 -99 -99 0 0.05 0
3 0 0 2 2 0 86 26 2 0 2.5331 -99 -99 0 0.05 0
3 0 0 2 2 0 87 27 1 1 2.8664 -99 -99 0 0 0
3 0 0 2 2 0 88 28 -1 -1 -1 -1 -1 0 0.1 0
3 0 0 2 2 0 89 29 1 1 0.91655 -99 -99 0 0.05 1
3 0 0 2 2 0 90 30 2 1 0.70034 -99 -99 0 0.2 1
3 0 0 2 2 0 91 31 2 1 1.8832 -99 -99 0 0.05 1
3 0 0 2 2 0 92 32 1 1 1.1999 -99 -99 0 0.1 1
3 0 0 2 2 0 93 33 1 1 1.8999 -99 -99 0 0.1 0
3 0 0 2 2 0 94 34 1 1 0.76658 -99 -99 0 0.4 0
3 0 0 2 2 0 95 35 2 1 0.71654 -99 -99 0 0.1 1
3 0 0 2 2 0 96 36 2 1 0.88323 -99 -99 0 0.2 1
3 0 0 2 2 0 97 37 2 1 1.3331 -99 -99 0 0.05 1
3 0 0 2 2 0 98 38 1 1 0.63319 -99 -99 0 0.1 1
3 0 0 2 2 0 99 39 2 1 0.51656 -99 -99 0 0.4 1
3 0 0 2 2 0 100 40 1 1 0.53361 -99 -99 0 0.4 0
3 0 0 2 2 0 101 41 1 1 0.69989 -99 -99 0 0.2 0
3 0 0 2 2 0 102 42 1 1 0.4499 -99 -99 0 0.4 1
3 0 0 2 2 0 103 43 2 0 0.84985 -99 -99 0 0.2 1
3 0 0 2 2 0 104 44 2 1 1.2332 -99 -99 0 0.2 0
3 0 0 2 2 0 105 45 1 0 2.5998 -99 -99 0 0.05 0
3 0 0 2 2 0 106 46 2 0 2.8831 -99 -99 0 0.05 1
3 0 0 2 2 0 107 47 1 1 1.1665 -99 -99 0 0.2 0
3 0 0 2 2 0 108 48 2 1 0.6832 -99 -99 0 0.4 1
3 0 0 2 2 0 109 49 1 1 2.9998 -99 -99 0 0 0
3 0 0 2 2 0 110 50 1 0 1.1999 -99 -99 0 0.1 0
3 0 0 2 2 0 111 51 2 1 0.81641 -99 -99 0 0.2 0
3 0 0 2 2 0 112 52 2 1 1.0165 -99 -99 0 0.2 1
3 0 0 2 2 0 113 53 1 0 1.1003 -99 -99 0 0 1
3 0 0 2 2 0 114 54 2 1 2.5832 -99 -99 0 0 0
3 0 0 2 2 0 115 55 2 1 0.93321 -99 -99 0 0.1 1
3 0 0 2 2 0 116 56 2 1 0.58359 -99 -99 0 0.4 0
3 0 0 2 2 0 117 57 1 1 1.0836 -99 -99 0 0 1
3 0 0 2 2 0 118 58 1 1 0.69985 -99 -99 0 0.4 1
3 0 0 2 2 0 119 59 2 1 0.95029 -99 -99 0 0.05 0
3 0 0 2 2 0 120 60 2 1 0.58319 -99 -99 0 0.4 0
3 0 0 3 3 1 121 1 2 1 1.4665 3.1037 6 1 0.05 0
3 0 0 3 3 1 122 2 1 1 1.1165 0.51012 6 1 0.1 0
3 0 0 3 3 1 123 3 2 1 1.6498 2.9599 5 1 0.05 0
3 0 0 3 3 0 124 4 -1 -1 -1 -1 -1 1 0 0
3 0 0 3 3 1 125 5 1 1 0.78323 0.35534 6 1 0.2 0
3 0 0 3 3 1 126 6 1 1 1.1665 0.92569 6 1 0.05 1
3 0 0 3 3 1 127 7 1 1 2.8832 4.2533 3 1 0 1
3 0 0 3 3 1 128 8 1 1 1.9165 0.35792 6 1 0.2 1
3 0 0 3 3 1 129 9 2 1 2.3832 1.0961 4 1 0.1 0
3 0 0 3 3 1 130 10 2 0 2.6998 6.1602 3 1 0.05 0
3 0 0 3 3 0 131 11 -1 -1 -1 -1 -1 1 0.05 0
3 0 0 3 3 1 132 12 1 1 1.1332 1.0681 5 1 0.05 1
3 0 0 3 3 0 133 13 -1 -1 -1 -1 -1 1 0 0
3 0 0 3 3 1 134 14 2 1 2.4664 2.005 4 1 0 1
3 0 0 3 3 1 135 15 2 1 2.6332 2.1711 5 1 0.1 1
3 0 0 3 3 1 136 16 2 1 0.99988 0.36426 6 1 0.4 0
3 0 0 3 3 1 137 17 1 1 0.6665 0.32255 6 1 0.4 0
3 0 0 3 3 1 138 18 2 1 1.1666 0.33501 6 1 0.2 0
3 0 0 3 3 1 139 19 1 1 0.69987 0.27663 6 1 0.2 0
3 0 0 3 3 1 140 20 1 1 1.7332 1.1882 6 1 0.1 0
3 0 0 3 3 1 141 21 2 1 0.91652 0.58042 6 1 0 1
3 0 0 3 3 1 142 22 2 0 2.6498 2.139 1 1 0.1 1
3 0 0 3 3 1 143 23 2 1 0.63321 0.29083 6 1 0.4 0
3 0 0 3 3 1 144 24 1 1 0.63317 0.24609 6 1 0.4 0
3 0 0 3 3 1 145 25 1 1 0.58321 0.27638 6 1 0.4 1
3 0 0 3 3 1 146 26 1 1 2.6165 2.9765 3 1 0 0
3 0 0 3 3 1 147 27 2 1 1.9999 4.1531 4 1 0 1
3 0 0 3 3 1 148 28 1 1 0.74986 0.26101 6 1 0.4 0
3 0 0 3 3 1 149 29 1 1 1.1332 0.27661 6 1 0.4 1
3 0 0 3 3 1 150 30 2 1 1.0999 0.25385 6 1 0.2 1
3 0 0 3 3 1 151 31 2 1 0.71651 0.30207 6 1 0.4 1
3 0 0 3 3 1 152 32 2 1 1.7665 0.34628 6 1 0.1 1
3 0 0 3 3 1 153 33 2 1 0.96653 0.32166 6 1 0.2 1
3 0 0 3 3 1 154 34 2 0 0.81654 0.29187 6 1 0 1
3 0 0 3 3 1 155 35 1 1 1.1666 1.009 5 1 0.1 1
3 0 0 3 3 1 156 36 1 1 0.96655 0.26173 6 1 0.4 1
3 0 0 3 3 1 157 37 1 1 1.5832 0.33194 6 1 0.1 0
3 0 0 3 3 1 158 38 2 1 1.6665 0.69909 6 1 0.1 0
3 0 0 3 3 1 159 39 1 1 2.4498 1.2749 4 1 0.05 0
3 0 0 3 3 1 160 40 2 1 0.78316 1.1119 6 1 0.05 1
3 0 0 3 3 1 161 41 1 1 0.73314 0.28529 6 1 0.2 1
3 0 0 3 3 1 162 42 2 1 0.7332 0.23542 6 1 0.2 0
3 0 0 3 3 1 163 43 2 1 0.74987 0.29135 6 1 0.4 1
3 0 0 3 3 1 164 44 2 1 0.54987 0.40877 6 1 0.4 0
3 0 0 3 3 1 165 45 2 1 1.9332 2.7387 5 1 0.1 0
3 0 0 3 3 1 166 46 2 1 0.74988 0.27104 6 1 0.05 1
3 0 0 3 3 1 167 47 2 1 0.78323 0.19579 6 1 0.2 0
3 0 0 3 3 1 168 48 2 1 0.53324 0.19055 6 1 0.4 1
3 0 0 3 3 1 169 49 2 1 0.48328 0.25033 6 1 0.2 1
3 0 0 3 3 1 170 50 2 1 0.51658 0.3071 6 1 0.05 1
3 0 0 3 3 1 171 51 2 0 0.5832 0.87114 6 1 0.1 1
3 0 0 3 3 1 172 52 1 1 1.3332 0.2548 6 1 0.2 0
3 0 0 3 3 1 173 53 2 0 2.1498 1.6858 4 1 0 1
3 0 0 3 3 1 174 54 2 1 0.53321 0.092561 6 1 0.1 1
3 0 0 3 3 0 175 55 -1 -1 -1 -1 -1 1 0.05 0
3 0 0 3 3 1 176 56 1 1 2.1832 5.277 3 1 0.05 1
3 0 0 3 3 0 177 57 -1 -1 -1 -1 -1 1 0 0
3 0 0 3 3 1 178 58 2 1 1.7336 1.5686 2 1 0 0
3 0 0 3 3 1 179 59 2 1 2.4665 2.4305 3 1 0 0
3 0 0 3 3 1 180 60 1 1 1.185 0.23775 6 1 0.2 1
3 0 0 4 3 1 181 1 1 1 0.81652 0.24545 6 1 0.4 1
3 0 0 4 3 1 182 2 2 0 1.0503 1.0003 5 1 0 1
3 0 0 4 3 1 183 3 1 1 0.76654 0.28 6 1 0.1 1
3 0 0 4 3 1 184 4 2 1 1.9499 2.3542 4 1 0.05 0
3 0 0 4 3 1 185 5 2 1 1.9665 0.57187 3 1 0 0
3 0 0 4 3 1 186 6 2 1 1.0169 0.21856 6 1 0.1 1
3 0 0 4 3 1 187 7 2 1 0.78318 0.32878 6 1 0.2 1
3 0 0 4 3 1 188 8 2 1 2.0665 2.4715 3 1 0 0
3 0 0 4 3 0 189 9 -1 -1 -1 -1 -1 1 0 0
3 0 0 4 3 1 190 10 2 1 0.81657 0.26788 6 1 0.2 0
3 0 0 4 3 1 191 11 2 1 1.3836 0.27995 5 1 0.05 0
3 0 0 4 3 1 192 12 2 1 0.58323 0.26018 6 1 0.4 1
3 0 0 4 3 1 193 13 2 1 1.1498 0.58151 6 1 0.1 0
3 0 0 4 3 1 194 14 2 1 1.0336 0.24283 6 1 0.1 0
3 0 0 4 3 1 195 15 1 1 2.1498 2.0497 5 1 0 0
3 0 0 4 3 1 196 16 2 1 0.81647 0.25159 6 1 0.2 0
3 0 0 4 3 1 197 17 2 1 0.41698 0.28695 6 1 0.4 1
3 0 0 4 3 1 198 18 1 1 0.48333 2.0937 5 1 0.05 0
3 0 0 4 3 1 199 19 2 0 0.81655 2.261 5 1 0.05 1
3 0 0 4 3 1 200 20 1 1 0.56656 5.8104 4 1 0.1 0
3 0 0 4 3 1 201 21 2 1 0.54987 0.24285 6 1 0.4 0
3 0 0 4 3 1 202 22 1 1 0.53365 1.1459 5 1 0.05 1
3 0 0 4 3 1 203 23 2 0 2.2832 1.3494 3 1 0 0
3 0 0 4 3 1 204 24 1 1 0.56656 0.71833 6 1 0.2 0
3 0 0 4 3 1 205 25 1 1 2.0666 1.3168 6 1 0.1 1
3 0 0 4 3 1 206 26 1 1 1.2166 0.29357 6 1 0.4 1
3 0 0 4 3 1 207 27 1 1 0.49991 0.2443 6 1 0.4 0
3 0 0 4 3 1 208 28 1 1 0.65025 0.42351 6 1 0.2 0
3 0 0 4 3 1 209 29 1 1 0.86655 0.28172 6 1 0.2 0
3 0 0 4 3 1 210 30 2 1 0.94986 0.13364 6 1 0.2 1
3 0 0 4 3 1 211 31 1 1 0.71651 6.305 5 1 0.05 0
3 0 0 4 3 1 212 32 1 1 2.1498 0.35719 6 1 0.2 1
3 0 0 4 3 1 213 33 2 1 0.5332 0.23122 6 1 0.05 1
3 0 0 4 3 1 214 34 2 0 2.6165 1.6427 4 1 0 1
3 0 0 4 3 1 215 35 2 1 2.7665 1.1203 4 1 0.1 0
3 0 0 4 3 1 216 36 1 0 2.6165 1.3496 3 1 0 1
3 0 0 4 3 1 217 37 1 1 2.1665 0.73423 5 1 0.1 1
3 0 0 4 3 0 218 38 -1 -1 -1 -1 -1 1 0.05 0
3 0 0 4 3 1 219 39 2 1 2.5665 0.93938 4 1 0.05 1
3 0 0 4 3 1 220 40 2 1 0.83319 0.20997 6 1 0.2 1
3 0 0 4 3 1 221 41 2 1 1.0998 0.2435 6 1 0.1 1
3 0 0 4 3 1 222 42 1 1 1.8332 1.0064 6 1 0.05 1
3 0 0 4 3 1 223 43 1 0 2.4498 0.40127 5 1 0 1
3 0 0 4 3 0 224 44 -1 -1 -1 -1 -1 1 0.05 0
3 0 0 4 3 1 225 45 1 1 1.1332 0.6923 6 1 0.1 0
3 0 0 4 3 1 226 46 1 1 0.91647 0.28142 6 1 0.4 0
3 0 0 4 3 1 227 47 2 1 2.4831 2.7521 3 1 0 1
3 0 0 4 3 1 228 48 1 1 2.5998 0.59955 5 1 0.1 0
3 0 0 4 3 1 229 49 2 1 0.54988 0.18303 6 1 0.4 1
3 0 0 4 3 1 230 50 2 1 1.1165 0.00018282 6 1 0.1 1
3 0 0 4 3 1 231 51 2 1 0.48364 0.24266 6 1 0.4 0
3 0 0 4 3 1 232 52 1 1 0.5332 0.2091 6 1 0.4 1
3 0 0 4 3 1 233 53 1 1 0.44993 1.0606 2 1 0 1
3 0 0 4 3 1 234 54 2 1 0.58321 0.1925 6 1 0.2 0
3 0 0 4 3 1 235 55 2 1 0.51655 0.19008 6 1 0.4 0
3 0 0 4 3 1 236 56 1 1 0.56655 0.1892 6 1 0.2 1
3 0 0 4 3 1 237 57 1 1 0.59987 0.2434 6 1 0.2 1
3 0 0 4 3 1 238 58 2 1 1.2165 0.38276 6 1 0.05 1
3 0 0 4 3 1 239 59 1 1 0.53315 0.14343 6 1 0.4 0
3 0 0 4 3 1 240 60 2 0 2.0998 0.85942 3 1 0 0
3 0 0 5 3 1 241 1 1 1 1.2832 0.22966 6 1 0.05 1
3 0 0 5 3 1 242 2 2 1 0.53322 0.25306 6 1 0.2 1
3 0 0 5 3 1 243 3 2 1 0.4832 0.15699 6 1 0.4 0
3 0 0 5 3 1 244 4 1 1 0.79981 0.18838 6 1 0.2 1
3 0 0 5 3 1 245 5 1 0 2.4665 1.2638 3 1 0 0
3 0 0 5 3 1 246 6 2 1 0.73362 0.26193 6 1 0.4 0
3 0 0 5 3 1 247 7 1 1 0.86653 0.23886 6 1 0.1 0
3 0 0 5 3 1 248 8 1 1 0.59988 0.28292 6 1 0.4 0
3 0 0 5 3 1 249 9 2 1 0.58321 0.3093 6 1 0.4 1
3 0 0 5 3 1 250 10 2 1 2.1831 1.5594 3 1 0 0
3 0 0 5 3 1 251 11 1 1 2.2665 0.6284 4 1 0.05 0
3 0 0 5 3 1 252 12 2 1 1.8498 0.38334 5 1 0.05 0
3 0 0 5 3 1 253 13 1 1 2.8498 1.2992 4 1 0.05 0
3 0 0 5 3 1 254 14 1 1 0.5165 0.054398 6 1 0.4 1
3 0 0 5 3 1 255 15 2 1 0.94987 1.34 6 1 0.1 0
3 0 0 5 3 1 256 16 1 1 0.56657 0.24517 6 1 0.2 0
3 0 0 5 3 1 257 17 1 1 0.59986 0.17715 6 1 0.2 1
3 0 0 5 3 1 258 18 2 1 2.5498 0.25792 6 1 0.05 1
3 0 0 5 3 1 259 19 2 1 0.46655 0.026697 6 1 0.4 1
3 0 0 5 3 1 260 20 2 1 2.4998 0.48329 4 1 0.1 0
3 0 0 5 3 1 261 21 1 1 0.46656 0.19478 6 1 0.2 1
3 0 0 5 3 1 262 22 2 0 2.2165 0.14407 6 1 0 1
3 0 0 5 3 1 263 23 1 1 2.4332 1.7909 2 1 0.05 0
3 0 0 5 3 1 264 24 1 0 1.2499 0.47506 1 1 0.1 0
3 0 0 5 3 1 265 25 1 1 0.5999 0.19755 6 1 0.4 0
3 0 0 5 3 1 266 26 2 0 2.4832 1.6483 5 1 0.1 1
3 0 0 5 3 1 267 27 2 1 0.59991 0.20379 6 1 0.1 1
3 0 0 5 3 1 268 28 2 1 0.64986 0.24716 6 1 0.2 0
3 0 0 5 3 1 269 29 2 1 0.54985 0.23724 6 1 0.2 1
3 0 0 5 3 1 270 30 2 0 2.3165 0.31681 5 1 0 1
3 0 0 5 3 1 271 31 1 1 2.4831 0.71096 4 1 0 0
3 0 0 5 3 1 272 32 2 1 2.3331 0.7389 3 1 0 1
3 0 0 5 3 1 273 33 1 0 1.1832 0.23544 1 1 0.2 1
3 0 0 5 3 0 274 34 -1 -1 -1 -1 -1 1 0 0
3 0 0 5 3 1 275 35 2 0 2.4831 2.7638 3 1 0.1 0
3 0 0 5 3 1 276 36 2 1 0.69986 0.10303 6 1 0.2 0
3 0 0 5 3 1 277 37 2 1 0.49986 0.23642 6 1 0.05 1
3 0 0 5 3 1 278 38 2 1 0.48322 0.26106 6 1 0.4 0
3 0 0 5 3 1 279 39 1 1 0.64991 0.20655 6 1 0.4 1
3 0 0 5 3 1 280 40 2 0 2.5997 1.1478 4 1 0 0
3 0 0 5 3 1 281 41 2 1 0.59988 0.28949 6 1 0.4 1
3 0 0 5 3 1 282 42 2 1 0.83361 0.27436 6 1 0.2 0
3 0 0 5 3 1 283 43 2 1 2.7165 1.3683 3 1 0 0
3 0 0 5 3 1 284 44 1 1 0.83318 0.28535 6 1 0.4 1
3 0 0 5 3 1 285 45 1 1 0.51657 0.1789 6 1 0.4 0
3 0 0 5 3 1 286 46 2 0 1.1165 0.29079 6 1 0.05 1
3 0 0 5 3 1 287 47 2 1 2.6332 0.40374 2 1 0 1
3 0 0 5 3 1 288 48 2 1 1.1666 0.23425 6 1 0.1 1
3 0 0 5 3 1 289 49 1 1 0.73319 0.23323 6 1 0.2 0
3 0 0 5 3 1 290 50 1 1 0.7665 0.22223 6 1 0.05 1
3 0 0 5 3 1 291 51 1 1 2.3998 0.43498 5 1 0.1 1
3 0 0 5 3 1 292 52 2 1 0.64979 0.061031 6 1 0.1 1
3 0 0 5 3 1 293 53 1 1 0.56655 0.59409 5 1 0.1 1
3 0 0 5 3 1 294 54 2 1 1.4495 0.23045 6 1 0.05 1
3 0 0 5 3 1 295 55 2 0 2.8497 0.98525 5 1 0 1
3 0 0 5 3 1 296 56 2 1 2.8832 0.70802 4 1 0.05 0
3 0 0 5 3 1 297 57 1 1 0.8499 0.29134 6 1 0.2 0
3 0 0 5 3 1 298 58 2 1 0.86654 1.3307 4 1 0 1
3 0 0 5 3 1 299 59 1 1 2.7665 0.25308 6 1 0.1 0
3 0 0 5 3 0 300 60 -1 -1 -1 -1 -1 1 0.05 0
3 0 0 6 3 1 301 1 2 1 0.85605 0.18959 5 1 0.05 1
3 0 0 6 3 1 302 2 2 1 0.51656 0.22997 5 1 0.1 1
3 0 0 6 3 1 303 3 1 1 0.667 0.17589 5 1 0.1 0
3 0 0 6 3 1 304 4 2 1 0.48363 0.16336 5 1 0.2 1
3 0 0 6 3 1 305 5 2 1 0.5336 0.20536 5 1 0.2 1
3 0 0 6 3 1 306 6 1 1 0.66655 0.19678 5 1 0.2 0
3 0 0 6 3 1 307 7 2 1 0.81652 0.52209 4 1 0.1 0
3 0 0 6 3 1 308 8 1 1 0.81656 0.22357 5 1 0.1 0
3 0 0 6 3 1 309 9 1 1 0.96696 0.2858 5 1 0.2 1
3 0 0 6 3 1 310 10 1 1 0.51658 0.20295 5 1 0.4 1
3 0 0 6 3 1 311 11 1 1 1.4333 7.3355 3 1 0 0
3 0 0 6 3 1 312 12 1 1 1.3499 0.25729 5 1 0.2 0
3 0 0 6 3 1 313 13 2 1 0.74989 0.12585 5 1 0.2 0
3 0 0 6 3 1 314 14 2 1 1.4669 8.0999 6 1 0.05 0
3 0 0 6 3 1 315 15 1 1 2.1499 0.27132 6 1 0.2 0
3 0 0 6 3 1 316 16 2 0 2.5836 0.28273 5 1 0 1
3 0 0 6 3 1 317 17 1 1 0.4999 0.10411 6 1 0.4 0
3 0 0 6 3 0 318 18 -1 -1 -1 -1 -1 1 0 0
3 0 0 6 3 1 319 19 1 1 0.66699 6.7038 6 1 0.4 0
3 0 0 6 3 1 320 20 2 1 0.54991 0.25908 6 1 0.4 0
3 0 0 6 3 1 321 21 1 1 1.3002 0.00016999 6 1 0.05 1
3 0 0 6 3 1 322 22 1 1 0.63361 0.15845 6 1 0.4 0
3 0 0 6 3 1 323 23 2 1 0.79994 0.10987 6 1 0 1
3 0 0 6 3 1 324 24 1 1 0.89988 0.010527 6 1 0.1 1
3 0 0 6 3 1 325 25 2 0 1.1832 1.1845 5 1 0 1
3 0 0 6 3 1 326 26 2 1 2.4832 1.9632 5 1 0.1 1
3 0 0 6 3 1 327 27 1 1 2.8499 1.833 4 1 0 0
3 0 0 6 3 1 328 28 2 1 1.2499 0.4024 5 1 0.1 0
3 0 0 6 3 1 329 29 1 1 1.0999 0.19588 6 1 0.05 1
3 0 0 6 3 1 330 30 2 1 1.5003 0.26952 6 1 0.05 1
3 0 0 6 3 1 331 31 1 0 1.8836 0.461 6 1 0 1
3 0 0 6 3 1 332 32 2 0 1.7665 0.31372 6 1 0 1
3 0 0 6 3 1 333 33 1 1 1.6332 0.2501 6 1 0.1 0
3 0 0 6 3 1 334 34 2 1 1.0166 0.29242 6 1 0.2 0
3 0 0 6 3 1 335 35 1 1 2.1003 0.61864 5 1 0.05 0
3 0 0 6 3 1 336 36 1 0 2.5165 1.0189 4 1 0 0
3 0 0 6 3 1 337 37 2 1 0.61655 0.20663 6 1 0.4 1
3 0 0 6 3 1 338 38 2 1 0.56698 0.18151 6 1 0.4 0
3 0 0 6 3 1 339 39 2 1 0.86693 2.2488 4 1 0.05 0
3 0 0 6 3 1 340 40 2 1 0.54991 0.22248 6 1 0.4 1
3 0 0 6 3 1 341 41 2 1 0.98356 0.77947 5 1 0.05 0
3 0 0 6 3 1 342 42 2 0 2.4165 1.1376 4 1 0.05 0
3 0 0 6 3 1 343 43 1 1 0.69993 0.18957 6 1 0.4 1
3 0 0 6 3 1 344 44 1 1 2.5002 0.24763 6 1 0.1 1
3 0 0 6 3 1 345 45 1 1 0.55027 0.21421 6 1 0.2 1
3 0 0 6 3 1 346 46 2 1 1.6669 0.28844 6 1 0.05 1
3 0 0 6 3 1 347 47 2 1 2.7169 0.30205 4 1 0.1 0
3 0 0 6 3 0 348 48 -1 -1 -1 -1 -1 1 0 0
3 0 0 6 3 1 349 49 1 1 1.1166 0.26228 6 1 0.1 1
3 0 0 6 3 1 350 50 2 1 0.86698 0.21461 6 1 0.2 0
3 0 0 6 3 1 351 51 1 0 0.68364 1.488 6 1 0.1 1
3 0 0 6 3 1 352 52 1 1 0.83324 0.088826 6 1 0.2 1
3 0 0 6 3 1 353 53 2 0 2.1336 0.33356 3 1 0.05 0
3 0 0 6 3 1 354 54 2 1 0.767 0.2309 6 1 0.2 1
3 0 0 6 3 1 355 55 1 1 0.53363 0.43842 6 1 0.4 1
3 0 0 6 3 1 356 56 2 1 1.5836 0.7229 5 1 0 1
3 0 0 6 3 1 357 57 2 1 0.58364 0.22836 6 1 0.4 0
3 0 0 6 3 1 358 58 1 1 0.7503 0.23527 6 1 0.05 1
3 0 0 6 3 1 359 59 2 1 2.3003 14.779 3 1 0 0
3 0 0 6 3 1 360 60 2 1 0.56699 0.33143 6 1 0.4 1
3 0 0 7 2 0 361 1 1 1 0.5165 -99 -99 2 0.4 0
3 0 0 7 2 0 362 2 2 1 1.0665 -99 -99 2 0.4 0
3 0 0 7 2 0 363 3 2 1 0.58325 -99 -99 2 0.4 0
3 0 0 7 2 0 364 4 2 1 0.51656 -99 -99 2 0.4 0
3 0 0 7 2 0 365 5 1 1 0.46653 -99 -99 2 0.4 0
3 0 0 7 2 0 366 6 2 1 0.4503 -99 -99 2 0.4 0
3 0 0 7 2 0 367 7 1 1 0.49989 -99 -99 2 0.4 0
3 0 0 7 2 0 368 8 1 1 0.46655 -99 -99 2 0.4 0
3 0 0 8 3 1 369 1 2 1 0.84986 1.7482 6 2 0.4 1
3 0 0 8 3 1 370 2 1 1 0.7499 0.54131 6 2 0.2 0
3 0 0 8 3 1 371 3 2 0 1.5499 0.53526 5 2 0.05 0
3 0 0 8 3 1 372 4 1 0 1.9499 0.25736 4 2 0 0
3 0 0 8 3 1 373 5 2 0 2.4165 0.18038 3 2 0.05 1
3 0 0 8 3 1 374 6 1 0 1.8162 0.18569 4 2 0 0
3 0 0 8 3 1 375 7 2 1 2.0332 0.68615 6 2 0.1 0
3 0 0 8 3 1 376 8 2 1 2.3499 0.21847 4 2 0.05 0
3 0 0 8 3 1 377 9 2 1 1.4166 0.19848 6 2 0.05 1
3 0 0 8 3 1 378 10 2 1 0.93323 0.22281 6 2 0.05 1
3 0 0 8 3 1 379 11 1 1 0.53324 0.25963 6 2 0.4 1
3 0 0 8 3 1 380 12 2 0 0.83319 0.80568 5 2 0 1
3 0 0 8 3 1 381 13 1 1 0.56657 0.22076 6 2 0.4 0
3 0 0 8 3 1 382 14 2 1 0.54999 0.49145 6 2 0 1
3 0 0 8 3 1 383 15 2 1 0.63323 0.21211 6 2 0.2 0
3 0 0 8 3 1 384 16 2 1 0.46658 0.27048 6 2 0.4 0
3 0 0 8 3 1 385 17 2 1 0.44988 0.24743 6 2 0.4 1
3 0 0 8 3 1 386 18 1 1 0.96658 0.75623 5 2 0 0
3 0 0 8 3 1 387 19 2 1 0.54991 0.18171 6 2 0.2 1
3 0 0 8 3 1 388 20 2 1 1.2499 0.12133 6 2 0.05 0
3 0 0 8 3 1 389 21 1 1 1.7332 0.61233 3 2 0.1 1
3 0 0 8 3 1 390 22 2 1 0.6499 1.2234 4 2 0.1 1
3 0 0 8 3 1 391 23 1 1 1.9332 0.49505 5 2 0.05 1
3 0 0 8 3 1 392 24 2 1 0.91656 0.060942 6 2 0.1 1
3 0 0 8 3 1 393 25 1 1 0.68324 0.076326 6 2 0.4 1
3 0 0 8 3 1 394 26 1 1 1.2166 0.20633 6 2 0.2 0
3 0 0 8 3 1 395 27 1 1 0.59991 0.17201 6 2 0.1 1
3 0 0 8 3 1 396 28 2 0 2.3165 0.99793 3 2 0 0
3 0 0 8 3 1 397 29 2 1 0.5665 0.2052 6 2 0.4 1
3 0 0 8 3 1 398 30 1 1 1.0499 0.20057 5 2 0 1
3 0 0 8 3 1 399 31 1 1 0.88322 0.13119 6 2 0.2 1
3 0 0 8 3 1 400 32 1 1 0.71698 0.015145 6 2 0.1 1
3 0 0 8 3 1 401 33 2 0 0.64991 1.0487 4 2 0 1
3 0 0 8 3 1 402 34 2 1 0.79991 0.1165 6 2 0.2 1
3 0 0 8 3 1 403 35 1 1 0.51651 0.19235 6 2 0.4 0
3 0 0 8 3 1 404 36 2 1 0.53325 0.19306 6 2 0.4 0
3 0 0 8 3 1 405 37 1 1 0.63326 0.11761 6 2 0.1 0
3 0 0 8 3 1 406 38 1 1 0.94991 0.20049 6 2 0.1 0
3 0 0 8 3 1 407 39 1 1 0.71657 0.072928 6 2 0.2 1
3 0 0 8 3 1 408 40 2 1 0.59989 0.19303 6 2 0.2 1
3 0 0 8 3 1 409 41 1 1 1.9165 0.40231 4 2 0 0
3 0 0 8 3 1 410 42 2 1 2.3499 0.08997 4 2 0.05 0
3 0 0 8 3 1 411 43 1 1 0.5999 0.060006 6 2 0.2 0
3 0 0 8 3 1 412 44 1 0 1.8498 3.4693 5 2 0 1
3 0 0 8 3 1 413 45 1 1 2.4332 0.75866 3 2 0.05 0
3 0 0 8 3 1 414 46 2 1 0.74991 0.18399 6 2 0.4 0
3 0 0 8 3 1 415 47 1 1 0.71658 0.20173 6 2 0.1 0
3 0 0 8 3 1 416 48 2 1 0.8166 0.24604 6 2 0.2 0
3 0 0 8 3 1 417 49 1 1 1.2832 0.1511 6 2 0.2 1
3 0 0 8 3 1 418 50 2 1 0.93323 0.20842 5 2 0 1
3 0 0 8 3 1 419 51 1 1 2.9665 0.070416 4 2 0.05 0
3 0 0 8 3 1 420 52 2 1 1.4332 0.58409 5 2 0.1 0
3 0 0 8 3 1 421 53 1 1 2.1832 0.10268 6 2 0.05 1
3 0 0 8 3 1 422 54 1 1 0.68321 0.11669 6 2 0.4 1
3 0 0 8 3 1 423 55 2 1 0.69988 0.15329 6 2 0.2 0
3 0 0 8 3 1 424 56 2 1 1.8998 0.044677 6 2 0.1 1
3 0 0 8 3 1 425 57 1 0 2.3165 0.22815 4 2 0 0
3 0 0 8 3 1 426 58 2 1 1.9665 0.33028 5 2 0.05 1
3 0 0 8 3 1 427 59 2 1 2.6332 0.097611 4 2 0.1 0
3 0 0 8 3 1 428 60 1 1 0.61654 0.15493 6 2 0.4 0
3 0 0 9 3 1 429 1 1 1 0.89986 0.24991 6 2 0.2 1
3 0 0 9 3 1 430 2 2 1 0.54992 0.20699 6 2 0.2 1
3 0 0 9 3 1 431 3 2 1 0.54994 0.2363 6 2 0.2 1
3 0 0 9 3 1 432 4 2 1 0.48324 0.17721 6 2 0.1 1
3 0 0 9 3 1 433 5 1 1 2.6498 0.22196 5 2 0.05 0
3 0 0 9 3 1 434 6 1 1 0.88324 0.18263 6 2 0.1 0
3 0 0 9 3 1 435 7 2 1 0.54987 0.18251 6 2 0.4 0
3 0 0 9 3 1 436 8 1 1 0.5499 0.19859 6 2 0.4 1
3 0 0 9 3 1 437 9 2 1 1.1836 0.060672 6 2 0.05 0
3 0 0 9 3 1 438 10 2 1 2.3998 0.18822 4 2 0.05 0
3 0 0 9 3 1 439 11 1 1 2.4499 0.32779 4 2 0 0
3 0 0 9 3 1 440 12 2 1 1.7999 0.18408 5 2 0.05 1
3 0 0 9 3 1 441 13 2 1 0.66658 0.21184 6 2 0.4 0
3 0 0 9 3 1 442 14 1 0 1.9999 0.14428 4 2 0 1
3 0 0 9 3 1 443 15 2 1 1.4499 0.18752 6 2 0 1
3 0 0 9 3 1 444 16 1 1 0.56657 0.1945 6 2 0.4 1
3 0 0 9 3 1 445 17 2 1 1.4499 0.21388 4 2 0.1 0
3 0 0 9 3 1 446 18 1 1 1.3499 0.37182 6 2 0.1 0
3 0 0 9 3 1 447 19 1 1 0.58322 0.20777 6 2 0.4 0
3 0 0 9 3 1 448 20 2 1 0.54987 0.21529 6 2 0.4 1
3 0 0 9 3 1 449 21 2 1 2.7832 0.15609 6 2 0.05 1
3 0 0 9 3 1 450 22 1 0 2.6998 0.30292 3 2 0 0
3 0 0 9 3 1 451 23 1 1 0.54992 0.14574 6 2 0.2 0
3 0 0 9 3 1 452 24 2 0 2.6832 1.302 4 2 0 1
3 0 0 9 3 1 453 25 1 1 2.0665 0.09234 6 2 0 1
3 0 0 9 3 1 454 26 1 1 1.9498 0.21555 5 2 0.1 0
3 0 0 9 3 1 455 27 1 1 1.2499 0.23361 6 2 0.05 1
3 0 0 9 3 1 456 28 1 1 2.6332 0.15554 5 2 0 1
3 0 0 9 3 1 457 29 1 1 0.99986 0.25048 6 2 0.1 1
3 0 0 9 3 1 458 30 1 1 0.59988 0.19704 6 2 0.4 0
3 0 0 9 3 1 459 31 1 1 0.9165 0.15792 6 2 0.1 1
3 0 0 9 3 1 460 32 2 1 0.59991 0.16455 6 2 0.2 1
3 0 0 9 3 1 461 33 2 1 1.1995 0.25043 6 2 0.1 0
3 0 0 9 3 1 462 34 2 1 0.98324 0.22191 6 2 0.2 0
3 0 0 9 3 1 463 35 2 1 0.99988 0.23925 6 2 0.1 1
3 0 0 9 3 1 464 36 2 1 0.83325 0.017851 6 2 0.4 0
3 0 0 9 3 1 465 37 2 0 0.88312 0.23427 6 2 0.05 1
3 0 0 9 3 1 466 38 1 0 1.3499 0.34314 5 2 0 0
3 0 0 9 3 1 467 39 2 1 0.66658 0.14764 6 2 0.4 1
3 0 0 9 3 1 468 40 2 1 0.74987 0.25308 6 2 0.05 1
3 0 0 9 3 1 469 41 2 1 0.74991 0.22572 6 2 0.4 1
3 0 0 9 3 1 470 42 1 0 2.1331 0.6324 4 2 0 1
3 0 0 9 3 1 471 43 2 0 2.1998 0.23601 4 2 0.05 1
3 0 0 9 3 1 472 44 1 1 0.63361 0.14978 6 2 0.4 0
3 0 0 9 3 1 473 45 1 1 1.0499 0.13838 6 2 0.2 1
3 0 0 9 3 1 474 46 1 1 1.4665 0.23906 6 2 0.2 0
3 0 0 9 3 1 475 47 1 1 0.71653 0.18978 6 2 0.4 1
3 0 0 9 3 0 476 48 -1 -1 -1 -1 -1 2 0.1 1
3 0 0 9 3 1 477 49 2 0 2.0665 0.25218 4 2 0.05 0
3 0 0 9 3 0 478 50 -1 -1 -1 -1 -1 2 0 0
3 0 0 9 3 1 479 51 1 1 0.86655 0.27083 6 2 0.2 1
3 0 0 9 3 1 480 52 1 1 1.0999 0.25019 6 2 0.2 0
3 0 0 9 3 1 481 53 2 1 1.2332 0.067102 5 2 0.05 0
3 0 0 9 3 1 482 54 2 1 1.1832 0.24579 6 2 0.2 0
3 0 0 9 3 1 483 55 1 1 2.2498 0.2793 4 2 0 0
3 0 0 9 3 1 484 56 1 0 2.5665 0.11461 4 2 0 0
3 0 0 9 3 1 485 57 2 1 0.96654 0.11572 6 2 0.2 0
3 0 0 9 3 1 486 58 2 1 1.5832 0.07663 6 2 0.1 1
3 0 0 9 3 1 487 59 2 1 1.3165 0.16177 6 2 0.1 0
3 0 0 9 3 1 488 60 1 1 2.4832 0.15731 4 2 0.05 0
3 0 0 10 3 1 489 1 1 1 0.58321 0.53811 6 2 0.1 0
3 0 0 10 3 1 490 2 1 1 0.58323 0.2583 6 2 0.2 0
3 0 0 10 3 1 491 3 2 1 0.7499 0.22303 6 2 0.2 0
3 0 0 10 3 1 492 4 1 1 0.48324 0.22838 6 2 0.2 1
3 0 0 10 3 1 493 5 2 1 0.78325 0.16092 6 2 0 1
3 0 0 10 3 1 494 6 2 1 0.68324 0.20428 6 2 0 1
3 0 0 10 3 1 495 7 1 1 0.98322 0.21763 6 2 0.1 1
3 0 0 10 3 1 496 8 1 1 2.2832 0.33073 5 2 0.05 1
3 0 0 10 3 1 497 9 2 1 0.76656 0.13194 6 2 0.05 1
3 0 0 10 3 1 498 10 2 0 2.4498 0.68135 4 2 0.05 0
3 0 0 10 3 1 499 11 2 0 2.5832 0.17916 3 2 0.1 0
3 0 0 10 3 1 500 12 1 1 1.1666 0.25087 6 2 0.2 0
3 0 0 10 3 1 501 13 2 1 0.58325 0.18196 6 2 0.4 1
3 0 0 10 3 1 502 14 2 1 0.93327 0.10229 6 2 0.05 0
3 0 0 10 3 1 503 15 1 1 0.74988 0.19273 6 2 0.2 1
3 0 0 10 3 1 504 16 2 0 2.3832 0.12684 5 2 0 1
3 0 0 10 3 1 505 17 2 1 0.58323 0.17548 6 2 0.4 0
3 0 0 10 3 1 506 18 1 1 2.3998 0.21295 4 2 0.05 0
3 0 0 10 3 1 507 19 1 1 2.3498 0.45975 5 2 0.1 0
3 0 0 10 3 1 508 20 1 1 2.2165 0.20562 6 2 0.1 1
3 0 0 10 3 1 509 21 2 1 1.8832 0.1191 5 2 0.05 0
3 0 0 10 3 1 510 22 1 1 0.73322 0.073996 6 2 0.2 1
3 0 0 10 3 1 511 23 2 1 1.6832 0.056756 6 2 0.1 0
3 0 0 10 3 1 512 24 1 1 0.66656 0.16057 6 2 0.4 1
3 0 0 10 3 1 513 25 2 1 1.0165 0.078782 6 2 0.1 0
3 0 0 10 3 1 514 26 2 1 1.6665 0.06226 6 2 0.1 0
3 0 0 10 3 1 515 27 2 1 1.1499 0.098812 6 2 0.1 1
3 0 0 10 3 1 516 28 1 1 0.64989 0.089477 6 2 0.4 0
3 0 0 10 3 1 517 29 2 0 1.5828 0.11571 6 2 0 1
3 0 0 10 3 1 518 30 2 1 0.58324 0.23638 6 2 0.4 0
3 0 0 10 3 1 519 31 1 1 0.4499 0.18947 6 2 0.4 1
3 0 0 10 3 1 520 32 1 1 0.44991 0.24088 6 2 0.4 0
3 0 0 10 3 1 521 33 2 0 2.6499 0.50636 5 2 0 1
3 0 0 10 3 1 522 34 2 1 0.66656 0.19228 6 2 0.2 0
3 0 0 10 3 1 523 35 1 1 0.54993 0.13577 6 2 0.4 1
3 0 0 10 3 1 524 36 2 1 2.4165 0.23846 3 2 0 0
3 0 0 10 3 1 525 37 2 1 0.59994 0.43379 6 2 0.4 0
3 0 0 10 3 1 526 38 2 1 1.1499 0.11869 6 2 0.05 1
3 0 0 10 3 1 527 39 2 1 0.53323 0.17744 6 2 0.4 1
3 0 0 10 3 1 528 40 2 1 2.2497 0.73293 5 2 0.05 0
3 0 0 10 3 1 529 41 2 1 0.54994 0.19041 6 2 0.4 1
3 0 0 10 3 1 530 42 2 0 2.3665 0.021187 3 2 0.05 0
3 0 0 10 3 1 531 43 1 1 0.56659 0.21829 6 2 0.4 0
3 0 0 10 3 1 532 44 2 1 0.63328 0.093058 6 2 0.2 1
3 0 0 10 3 1 533 45 2 1 0.84991 0.18821 6 2 0.1 1
3 0 0 10 3 0 534 46 -1 -1 -1 -1 -1 2 0 1
3 0 0 10 3 1 535 47 1 1 2.4165 0.017469 4 2 0 0
3 0 0 10 3 1 536 48 1 1 1.3833 0.061913 6 2 0.1 1
3 0 0 10 3 1 537 49 1 1 1.0665 0.23003 6 2 0.05 1
3 0 0 10 3 1 538 50 1 1 1.1832 0.042499 6 2 0.05 1
3 0 0 10 3 1 539 51 2 1 0.81656 0.16535 6 2 0.2 0
3 0 0 10 3 1 540 52 2 1 1.1832 0.19613 6 2 0.1 1
3 0 0 10 3 1 541 53 1 0 2.6665 0.19858 4 2 0 0
3 0 0 10 3 1 542 54 1 1 1.3166 0.71868 6 2 0.2 0
3 0 0 10 3 1 543 55 2 1 0.68317 0.2035 6 2 0.2 1
3 0 0 10 3 1 544 56 1 1 2.4332 0.13474 4 2 0 0
3 0 0 10 3 1 545 57 2 1 2.3499 0.056195 6 2 0.05 1
3 0 0 10 3 1 546 58 2 1 0.59993 0.075014 6 2 0.2 1
3 0 0 10 3 1 547 59 1 0 2.7498 0.047584 3 2 0 0
3 0 0 10 3 0 548 60 -1 -1 -1 -1 -1 2 0 0
3 0 0 11 2 0 549 1 -1 -1 -1 -1 -1 0 0.4 0
3 0 0 11 2 0 550 2 -1 -1 -1 -1 -1 0 0.4 0
3 0 0 11 2 0 551 3 2 1 0.49991 -99 -99 0 0.4 0
3 0 0 11 2 0 552 4 1 1 0.88322 -99 -99 0 0.4 0
3 0 0 11 2 0 553 5 2 1 1.2332 -99 -99 0 0.4 0
3 0 0 11 2 0 554 6 2 1 0.48323 -99 -99 0 0.4 0
3 0 0 11 2 0 555 7 1 1 0.49989 -99 -99 0 0.4 0
3 0 0 11 2 0 556 8 1 1 0.48324 -99 -99 0 0.4 0
3 0 0 12 3 1 557 1 2 1 0.54986 -99 3 0 0.2 1
3 0 0 12 3 1 558 2 2 1 0.51656 -99 3 0 0.4 1
3 0 0 12 3 1 559 3 2 1 0.56657 -99 3 0 0.4 1
3 0 0 12 3 1 560 4 2 1 2.2332 -99 3 0 0.1 1
3 0 0 12 3 1 561 5 1 1 2.0165 -99 3 0 0.2 1
3 0 0 12 3 1 562 6 1 1 0.66657 -99 3 0 0.4 0
3 0 0 12 3 1 563 7 1 0 2.6498 -99 2 0 0 0
3 0 0 12 3 1 564 8 2 1 0.98316 -99 3 0 0.2 0
3 0 0 12 3 1 565 9 2 1 1.0332 -99 3 0 0.2 0
3 0 0 12 3 1 566 10 2 0 2.6998 -99 3 0 0 1
3 0 0 12 3 1 567 11 1 1 2.5165 -99 1 0 0.05 0
3 0 0 12 3 1 568 12 2 0 2.7165 -99 1 0 0.1 0
3 0 0 12 3 1 569 13 1 1 2.7832 -99 1 0 0.05 0
3 0 0 12 3 1 570 14 2 0 2.8665 -99 2 0 0 0
3 0 0 12 3 0 571 15 -1 -1 -1 -1 -1 0 0 1
3 0 0 12 3 1 572 16 1 1 1.8165 -99 2 0 0.1 1
3 0 0 12 3 1 573 17 1 1 2.2332 -99 2 0 0.05 1
3 0 0 12 3 0 574 18 -1 -1 -1 -1 -1 0 0.1 1
3 0 0 12 3 1 575 19 1 1 2.5499 -99 2 0 0 1
3 0 0 12 3 1 576 20 2 1 1.5169 -99 3 0 0.2 0
3 0 0 12 3 1 577 21 2 0 2.9665 -99 2 0 0 1
3 0 0 12 3 0 578 22 -1 -1 -1 -1 -1 0 0.05 0
3 0 0 12 3 1 579 23 1 1 0.69987 -99 3 0 0.2 1
3 0 0 12 3 1 580 24 2 1 2.2165 -99 2 0 0.1 0
3 0 0 12 3 1 581 25 1 1 1.217 -99 3 0 0.2 1
3 0 0 12 3 1 582 26 2 1 2.1165 -99 2 0 0.05 0
3 0 0 12 3 1 583 27 1 1 1.2003 -99 3 0 0.1 1
3 0 0 12 3 1 584 28 2 1 1.0832 -99 3 0 0.05 1
3 0 0 12 3 1 585 29 1 0 0.81656 -99 3 0 0 1
3 0 0 12 3 1 586 30 1 1 2.2999 -99 2 0 0.05 1
3 0 0 12 3 0 587 31 -1 -1 -1 -1 -1 0 0.1 0
3 0 0 12 3 1 588 32 2 1 1.9999 -99 1 0 0.05 1
3 0 0 12 3 0 589 33 -1 -1 -1 -1 -1 0 0.05 0
3 0 0 12 3 1 590 34 2 1 1.1832 -99 1 0 0.2 1
3 0 0 12 3 1 591 35 1 1 2.1165 -99 1 0 0.1 0
3 0 0 12 3 1 592 36 1 0 2.6336 -99 1 0 0 0
3 0 0 12 3 1 593 37 1 1 0.89992 -99 3 0 0.2 0
3 0 0 12 3 1 594 38 2 1 0.5499 -99 3 0 0.4 0
3 0 0 12 3 1 595 39 2 1 2.1665 -99 2 0 0.1 0
3 0 0 12 3 1 596 40 2 1 0.7503 -99 3 0 0.4 1
3 0 0 12 3 1 597 41 1 1 1.0999 -99 3 0 0.2 0
3 0 0 12 3 1 598 42 1 1 0.56697 -99 3 0 0.4 1
3 0 0 12 3 1 599 43 2 1 0.78323 -99 3 0 0.1 1
3 0 0 12 3 1 600 44 2 1 2.1332 -99 3 0 0.05 1
3 0 0 12 3 1 601 45 2 0 2.6836 -99 2 0 0.05 1
3 0 0 12 3 1 602 46 1 1 1.8003 -99 3 0 0.2 0
3 0 0 12 3 1 603 47 1 1 0.8003 -99 3 0 0.4 1
3 0 0 12 3 0 604 48 -1 -1 -1 -1 -1 0 0 0
3 0 0 12 3 1 605 49 2 1 0.56653 -99 3 0 0.4 0
3 0 0 12 3 1 606 50 2 1 0.79993 -99 3 0 0.1 1
3 0 0 12 3 1 607 51 1 0 2.6998 -99 2 0 0 0
3 0 0 12 3 1 608 52 2 1 0.56699 -99 3 0 0.2 1
3 0 0 12 3 1 609 53 1 1 0.61657 -99 3 0 0.4 0
3 0 0 12 3 1 610 54 2 0 2.4998 -99 1 0 0.05 0
3 0 0 12 3 0 611 55 -1 -1 -1 -1 -1 0 0 1
3 0 0 12 3 1 612 56 1 1 0.53325 -99 3 0 0.4 1
3 0 0 12 3 1 613 57 1 1 0.5666 -99 3 0 0.4 0
3 0 0 12 3 1 614 58 2 0 2.7497 -99 2 0 0.1 0
3 0 0 12 3 0 615 59 -1 -1 -1 -1 -1 0 0 0
3 0 0 12 3 1 616 60 2 1 0.69986 -99 3 0 0.4 0
3 0 0 13 3 1 617 1 1 1 1.9832 -99 2 0 0.1 0
3 0 0 13 3 1 618 2 2 1 0.64993 -99 3 0 0.2 1
3 0 0 13 3 1 619 3 2 1 1.1332 -99 3 0 0.2 1
3 0 0 13 3 1 620 4 2 1 0.63323 -99 3 0 0.05 1
3 0 0 13 3 1 621 5 2 1 1.6166 -99 3 0 0.05 1
3 0 0 13 3 1 622 6 1 1 0.71657 -99 3 0 0.4 0
3 0 0 13 3 1 623 7 2 1 0.66657 -99 3 0 0.2 0
3 0 0 13 3 1 624 8 2 0 2.5498 -99 2 0 0 0
3 0 0 13 3 1 625 9 1 1 0.83322 -99 3 0 0.4 0
3 0 0 13 3 1 626 10 1 0 2.0832 -99 1 0 0 0
3 0 0 13 3 1 627 11 2 0 1.8165 -99 3 0 0.05 1
3 0 0 13 3 1 628 12 1 1 1.8999 -99 2 0 0.1 0
3 0 0 13 3 1 629 13 1 1 2.6332 -99 2 0 0.1 0
3 0 0 13 3 1 630 14 1 1 2.6831 -99 2 0 0.05 0
3 0 0 13 3 1 631 15 1 1 0.94989 -99 3 0 0.05 1
3 0 0 13 3 1 632 16 1 1 0.73322 -99 3 0 0.2 1
